<?xml version="1.0" encoding="UTF-8"?>

<Bundle xmlns="http://hl7.org/fhir">
  <id value="bundle-ips-all-sections"/>
  <meta>
    <profile value="http://hl7.org/fhir/uv/ips/StructureDefinition/Bundle-uv-ips"/>
    <profile value="http://fhir.ch/ig/ch-ips/StructureDefinition/ch-ips-document"/>
    <security>
      <system value="http://terminology.hl7.org/CodeSystem/v3-Confidentiality"/>
      <code value="N"/>
      <display value="normal"/>
    </security>
  </meta>
  <language value="en-NZ"/>
  <identifier>
    <system value="urn:oid:2.16.724.4.8.10.200.10"/>
    <value value="ac7a747c-a2c9-493c-ba39-4ac6997eed1e"/>
  </identifier>
  <type value="document"/>
  <timestamp value="2024-09-21T18:53:00.8116604+00:00"/>
  <entry>
    <fullUrl value="https://fhir.example.com/Composition/9c98f78e-f324-4ad5-97a1-8eb9ef9a1172"/>
    <resource>
      <Composition>
        <id value="9c98f78e-f324-4ad5-97a1-8eb9ef9a1172"/>
        <meta>
          <versionId value="1"/>
          <profile value="http://hl7.org/fhir/uv/ips/StructureDefinition/Composition-uv-ips"/>
        </meta>
        <language value="en-NZ"/>
        <text>
          <status value="generated"/><div xmlns="http://www.w3.org/1999/xhtml" xml:lang="en-NZ" lang="en-NZ"><a name="Composition_9c98f78e-f324-4ad5-97a1-8eb9ef9a1172"> </a><p class="res-header-id"><b>Generated Narrative: Composition 9c98f78e-f324-4ad5-97a1-8eb9ef9a1172</b></p><a name="9c98f78e-f324-4ad5-97a1-8eb9ef9a1172"> </a><a name="hc9c98f78e-f324-4ad5-97a1-8eb9ef9a1172"> </a><div style="display: inline-block; background-color: #d9e0e7; padding: 6px; margin: 4px; border: 1px solid #8da1b4; border-radius: 5px; line-height: 60%"><p style="margin-bottom: 0px">version: 1; Language: en-NZ</p><p style="margin-bottom: 0px">Profile: <a href="StructureDefinition-Composition-uv-ips.html">Composition (IPS)</a></p></div><p><b>identifier</b>: <code>urn:oid:2.16.840.1.113883.2.18.7.2</code>/ac7a747c-a2c9-493c-ba39-4ac6997eed1e</p><p><b>status</b>: Final</p><p><b>type</b>: <span title="Codes:{http://loinc.org 60591-5}">Patient summary Document</span></p><p><b>date</b>: 2024-09-13</p><p><b>author</b>: <a href="Bundle-bundle-ips-all-sections.html#Organization_7a17027f-acc0-4d77-bf84-c0dad8f7c881">Organization NorthCare Pukete Road-Thomas Road</a></p><p><b>title</b>: International Patient Summary</p><p><b>confidentiality</b>: normal</p><h3>Attesters</h3><table class="grid"><tr><td style="display: none">-</td><td><b>Mode</b></td><td><b>Time</b></td><td><b>Party</b></td></tr><tr><td style="display: none">*</td><td>Professional</td><td>2024-09-13</td><td><a href="Bundle-bundle-ips-all-sections.html#PractitionerRole_94d12c8d-a3df-47a7-a0bb-0f29d64bafe2">PractitionerRole Doctor</a></td></tr></table><p><b>custodian</b>: <a href="Bundle-bundle-ips-all-sections.html#Organization_7a17027f-acc0-4d77-bf84-c0dad8f7c881">Organization NorthCare Pukete Road-Thomas Road</a></p><h3>RelatesTos</h3><table class="grid"><tr><td style="display: none">-</td><td><b>Code</b></td><td><b>Target[x]</b></td></tr><tr><td style="display: none">*</td><td>Transforms</td><td><code>urn:oid:2.16.840.1.113883.2.18.7.2</code>/ac7a747c-a2c9-493c-ba39-4ac6997eed1e</td></tr></table><h3>Events</h3><table class="grid"><tr><td style="display: none">-</td><td><b>Code</b></td><td><b>Period</b></td></tr><tr><td style="display: none">*</td><td><span title="Codes:{http://terminology.hl7.org/CodeSystem/v3-ActClass PCPR}">care provision</span></td><td>?? --&gt; 2024-09-13</td></tr></table></div>
        </text>
        <identifier>
          <system value="urn:oid:2.16.840.1.113883.2.18.7.2"/>
          <value value="ac7a747c-a2c9-493c-ba39-4ac6997eed1e"/>
        </identifier>
        <status value="final"/>
        <type>
          <coding>
            <system value="http://loinc.org"/>
            <code value="60591-5"/>
            <display value="Patient summary Document"/>
          </coding>
        </type>
        <subject>
          <reference value="Patient/d174bd1a-b368-41e6-83a2-af77f2b3c60f"/>
        </subject>
        <date value="2024-09-13"/>
        <author>
          <reference value="Organization/7a17027f-acc0-4d77-bf84-c0dad8f7c881"/>
        </author>
        <title value="International Patient Summary"/>
        <confidentiality value="N"/>
        <attester>
          <mode value="professional"/>
          <time value="2024-09-13"/>
          <party>
            <reference value="PractitionerRole/94d12c8d-a3df-47a7-a0bb-0f29d64bafe2"/>
          </party>
        </attester>
        <custodian>
          <reference value="Organization/7a17027f-acc0-4d77-bf84-c0dad8f7c881"/>
        </custodian>
        <relatesTo>
          <code value="transforms"/>
          <targetIdentifier>
            <system value="urn:oid:2.16.840.1.113883.2.18.7.2"/>
            <value value="ac7a747c-a2c9-493c-ba39-4ac6997eed1e"/>
          </targetIdentifier>
        </relatesTo>
        <event>
          <code>
            <coding>
              <system value="http://terminology.hl7.org/CodeSystem/v3-ActClass"/>
              <code value="PCPR"/>
            </coding>
          </code>
          <period>
            <end value="2024-09-13"/>
          </period>
        </event>
        <section>
          <title value="Problem List"/>
          <code>
            <coding>
              <system value="http://loinc.org"/>
              <code value="11450-4"/>
              <display value="Problem list - Reported"/>
            </coding>
          </code>
          <text>
            <extension url="http://hl7.org/fhir/StructureDefinition/textLink">
              <extension url="htmlid">
                <valueString value="8039e4a7-d459-454c-92a5-6c17ca2a824b"/>
              </extension>
              <extension url="data">
                <valueUri value="https://fhir.example.com/Condition/8039e4a7-d459-454c-92a5-6c17ca2a824b"/>
              </extension>
            </extension>
            <extension url="http://hl7.org/fhir/StructureDefinition/textLink">
              <extension url="htmlid">
                <valueString value="f8ab8ac1-56d1-4239-8303-dc70c1a3d0e1"/>
              </extension>
              <extension url="data">
                <valueUri value="https://fhir.example.com/Condition/f8ab8ac1-56d1-4239-8303-dc70c1a3d0e1"/>
              </extension>
            </extension>
            <status value="generated"/><div xmlns="http://www.w3.org/1999/xhtml"><table border="1"><tr><th>Problem</th><th>Onset</th><th>Clinical Status</th><th>Verification Status</th><th>Severity</th></tr><tr id="8039e4a7-d459-454c-92a5-6c17ca2a824b"><td>Essential hypertension</td><td>May 24 2016 20:00</td><td/><td/><td/></tr><tr id="f8ab8ac1-56d1-4239-8303-dc70c1a3d0e1"><td>Gout</td><td>May 24 2016 20:00</td><td/><td/><td/></tr></table></div>
          </text>
          <entry>
            <reference value="Condition/8039e4a7-d459-454c-92a5-6c17ca2a824b"/>
          </entry>
          <entry>
            <reference value="Condition/f8ab8ac1-56d1-4239-8303-dc70c1a3d0e1"/>
          </entry>
        </section>
        <section>
          <title value="Allergies and Intolerances"/>
          <code>
            <coding>
              <system value="http://loinc.org"/>
              <code value="48765-2"/>
              <display value="Allergies and adverse reactions Document"/>
            </coding>
          </code>
          <text>
            <extension url="http://hl7.org/fhir/StructureDefinition/textLink">
              <extension url="htmlid">
                <valueString value="9838cf73-c30d-4aa5-8ed8-36a079060b81"/>
              </extension>
              <extension url="data">
                <valueUri value="https://fhir.example.com/AllergyIntolerance/9838cf73-c30d-4aa5-8ed8-36a079060b81"/>
              </extension>
            </extension>
            <status value="generated"/><div xmlns="http://www.w3.org/1999/xhtml"><table border="1"><tr><th>Allergy Type</th><th>Substance</th><th>Onset</th><th>Clinical Status</th><th>Verification Status</th><th>Reaction</th></tr><tr id="9838cf73-c30d-4aa5-8ed8-36a079060b81"><td/><td>Penicillin</td><td/><td/><td/><td/></tr></table></div>
          </text>
          <entry>
            <reference value="AllergyIntolerance/9838cf73-c30d-4aa5-8ed8-36a079060b81"/>
          </entry>
        </section>
        <section>
          <title value="Medication Summary"/>
          <code>
            <coding>
              <system value="http://loinc.org"/>
              <code value="10160-0"/>
              <display value="History of Medication use Narrative"/>
            </coding>
          </code>
          <text>
            <extension url="http://hl7.org/fhir/StructureDefinition/textLink">
              <extension url="htmlid">
                <valueString value="c3d31980-2a88-45b6-a7af-3fe8d32cc6fa"/>
              </extension>
              <extension url="data">
                <valueUri value="https://fhir.example.com/MedicationStatement/c3d31980-2a88-45b6-a7af-3fe8d32cc6fa"/>
              </extension>
            </extension>
            <extension url="http://hl7.org/fhir/StructureDefinition/textLink">
              <extension url="htmlid">
                <valueString value="b8dac343-16d7-49bf-ac36-b15e6726c343"/>
              </extension>
              <extension url="data">
                <valueUri value="https://fhir.example.com/MedicationStatement/b8dac343-16d7-49bf-ac36-b15e6726c343"/>
              </extension>
            </extension>
            <extension url="http://hl7.org/fhir/StructureDefinition/textLink">
              <extension url="htmlid">
                <valueString value="b8e4d4a8-2c18-4f03-88dc-06f5f44f8058"/>
              </extension>
              <extension url="data">
                <valueUri value="https://fhir.example.com/MedicationStatement/b8e4d4a8-2c18-4f03-88dc-06f5f44f8058"/>
              </extension>
            </extension>
            <status value="generated"/><div xmlns="http://www.w3.org/1999/xhtml"><table border="1"><tr><th>Medication</th><th>Dates</th><th>Dosage-Timing</th><th>Status</th><th>Route</th></tr><tr id="c3d31980-2a88-45b6-a7af-3fe8d32cc6fa"><td>cilazapril 500 microgram tablet, 90</td><td/><td/><td>stopped</td><td/></tr><tr id="b8dac343-16d7-49bf-ac36-b15e6726c343"><td>lisinopril 5 mg tablet</td><td/><td/><td>active</td><td/></tr><tr id="b8e4d4a8-2c18-4f03-88dc-06f5f44f8058"><td>Ultraproct - cinchocaine 0.5% (5 mg/g) + fluocortolone hexanoate 0.095% (945 microgram/g) + fluocortolone pivalate 0.092% (918 microgram/g) ointment</td><td/><td/><td>active</td><td/></tr></table></div>
          </text>
          <entry>
            <reference value="MedicationStatement/c3d31980-2a88-45b6-a7af-3fe8d32cc6fa"/>
          </entry>
          <entry>
            <reference value="MedicationStatement/b8dac343-16d7-49bf-ac36-b15e6726c343"/>
          </entry>
          <entry>
            <reference value="MedicationStatement/b8e4d4a8-2c18-4f03-88dc-06f5f44f8058"/>
          </entry>
        </section>
        <section>
          <title value="Immunizations"/>
          <code>
            <coding>
              <system value="http://loinc.org"/>
              <code value="11369-6"/>
              <display value="History of Immunization note"/>
            </coding>
          </code>
          <text>
            <extension url="http://hl7.org/fhir/StructureDefinition/textLink">
              <extension url="htmlid">
                <valueString value="17b5a6d7-307b-4726-8c8c-0031e61582ce"/>
              </extension>
              <extension url="data">
                <valueUri value="https://fhir.example.com/Immunization/17b5a6d7-307b-4726-8c8c-0031e61582ce"/>
              </extension>
            </extension>
            <extension url="http://hl7.org/fhir/StructureDefinition/textLink">
              <extension url="htmlid">
                <valueString value="14e8b0d8-b4e4-4f8e-b263-ef385787453b"/>
              </extension>
              <extension url="data">
                <valueUri value="https://fhir.example.com/Immunization/14e8b0d8-b4e4-4f8e-b263-ef385787453b"/>
              </extension>
            </extension>
            <extension url="http://hl7.org/fhir/StructureDefinition/textLink">
              <extension url="htmlid">
                <valueString value="47befa30-026c-421a-ad32-c0b134597a30"/>
              </extension>
              <extension url="data">
                <valueUri value="https://fhir.example.com/Immunization/47befa30-026c-421a-ad32-c0b134597a30"/>
              </extension>
            </extension>
            <extension url="http://hl7.org/fhir/StructureDefinition/textLink">
              <extension url="htmlid">
                <valueString value="2f05b590-ce75-4ac6-be97-c2a275e21cbc"/>
              </extension>
              <extension url="data">
                <valueUri value="https://fhir.example.com/Immunization/2f05b590-ce75-4ac6-be97-c2a275e21cbc"/>
              </extension>
            </extension>
            <extension url="http://hl7.org/fhir/StructureDefinition/textLink">
              <extension url="htmlid">
                <valueString value="c1d3ccb9-8b7d-4732-8e03-abe63be1984c"/>
              </extension>
              <extension url="data">
                <valueUri value="https://fhir.example.com/Immunization/c1d3ccb9-8b7d-4732-8e03-abe63be1984c"/>
              </extension>
            </extension>
            <extension url="http://hl7.org/fhir/StructureDefinition/textLink">
              <extension url="htmlid">
                <valueString value="79b66c21-fbd3-4c7f-ae82-ac958ae62e0a"/>
              </extension>
              <extension url="data">
                <valueUri value="https://fhir.example.com/Immunization/79b66c21-fbd3-4c7f-ae82-ac958ae62e0a"/>
              </extension>
            </extension>
            <extension url="http://hl7.org/fhir/StructureDefinition/textLink">
              <extension url="htmlid">
                <valueString value="9910b96a-793b-4e96-91a9-291c27357f83"/>
              </extension>
              <extension url="data">
                <valueUri value="https://fhir.example.com/Immunization/9910b96a-793b-4e96-91a9-291c27357f83"/>
              </extension>
            </extension>
            <extension url="http://hl7.org/fhir/StructureDefinition/textLink">
              <extension url="htmlid">
                <valueString value="5b028fb0-bd04-4e75-b2bc-6952771173ea"/>
              </extension>
              <extension url="data">
                <valueUri value="https://fhir.example.com/Immunization/5b028fb0-bd04-4e75-b2bc-6952771173ea"/>
              </extension>
            </extension>
            <status value="generated"/><div xmlns="http://www.w3.org/1999/xhtml"><table border="1"><tr><th>Vaccine</th><th>Date</th><th>Status</th><th>Lot Number</th></tr><tr id="17b5a6d7-307b-4726-8c8c-0031e61582ce"><td>Influenza, split virus, trivalent, preservative</td><td>Apr 9 2024 20:00</td><td>Completed</td><td>H06</td></tr><tr id="14e8b0d8-b4e4-4f8e-b263-ef385787453b"><td>COVID-19, mRNA, LNP-S, bivalent, PF, 30 mcg/0.3 mL dose</td><td>Feb 17 2024 19:00</td><td>Completed</td><td>GK3908-068</td></tr><tr id="47befa30-026c-421a-ad32-c0b134597a30"><td>Influenza, split virus, trivalent, preservative</td><td>Apr 11 2023 20:00</td><td>Completed</td><td>358899</td></tr><tr id="2f05b590-ce75-4ac6-be97-c2a275e21cbc"><td>COVID-19, mRNA, LNP-S, PF, 30 mcg/0.3 mL dose</td><td>Jul 31 2022 20:00</td><td>Completed</td><td>PCB0008-07</td></tr><tr id="c1d3ccb9-8b7d-4732-8e03-abe63be1984c"><td>zoster live</td><td>Jul 12 2022 20:00</td><td>Completed</td><td>U021248</td></tr><tr id="79b66c21-fbd3-4c7f-ae82-ac958ae62e0a"><td>COVID-19, mRNA, LNP-S, PF, 30 mcg/0.3 mL dose</td><td>Jan 12 2022 19:00</td><td>Completed</td><td>FL1072-025</td></tr><tr id="9910b96a-793b-4e96-91a9-291c27357f83"><td>COVID-19, mRNA, LNP-S, PF, 30 mcg/0.3 mL dose</td><td>Aug 26 2021 20:00</td><td>Completed</td><td>FE8163-007</td></tr><tr id="5b028fb0-bd04-4e75-b2bc-6952771173ea"><td>COVID-19, mRNA, LNP-S, PF, 30 mcg/0.3 mL dose</td><td>Aug 4 2021 20:00</td><td>Completed</td><td>FF8871-001</td></tr></table></div>
          </text>
          <entry>
            <reference value="Immunization/17b5a6d7-307b-4726-8c8c-0031e61582ce"/>
          </entry>
          <entry>
            <reference value="Immunization/14e8b0d8-b4e4-4f8e-b263-ef385787453b"/>
          </entry>
          <entry>
            <reference value="Immunization/47befa30-026c-421a-ad32-c0b134597a30"/>
          </entry>
          <entry>
            <reference value="Immunization/2f05b590-ce75-4ac6-be97-c2a275e21cbc"/>
          </entry>
          <entry>
            <reference value="Immunization/c1d3ccb9-8b7d-4732-8e03-abe63be1984c"/>
          </entry>
          <entry>
            <reference value="Immunization/79b66c21-fbd3-4c7f-ae82-ac958ae62e0a"/>
          </entry>
          <entry>
            <reference value="Immunization/9910b96a-793b-4e96-91a9-291c27357f83"/>
          </entry>
          <entry>
            <reference value="Immunization/5b028fb0-bd04-4e75-b2bc-6952771173ea"/>
          </entry>
        </section>
        <section>
          <title value="Results"/>
          <code>
            <coding>
              <system value="http://loinc.org"/>
              <code value="30954-2"/>
              <display value="Relevant diagnostic tests/laboratory data note"/>
            </coding>
          </code>
          <text>
            <extension url="http://hl7.org/fhir/StructureDefinition/textLink">
              <extension url="htmlid">
                <valueString value="b0187efd-5f9b-474d-87bc-efebf877449a"/>
              </extension>
              <extension url="data">
                <valueUri value="https://fhir.example.com/Observation/b0187efd-5f9b-474d-87bc-efebf877449a"/>
              </extension>
            </extension>
            <extension url="http://hl7.org/fhir/StructureDefinition/textLink">
              <extension url="htmlid">
                <valueString value="f40b9e26-93b4-462b-8811-bdd6943873aa"/>
              </extension>
              <extension url="data">
                <valueUri value="https://fhir.example.com/Observation/f40b9e26-93b4-462b-8811-bdd6943873aa"/>
              </extension>
            </extension>
            <extension url="http://hl7.org/fhir/StructureDefinition/textLink">
              <extension url="htmlid">
                <valueString value="612b7e6a-c902-45cb-b45c-d1894458a26b"/>
              </extension>
              <extension url="data">
                <valueUri value="https://fhir.example.com/Observation/612b7e6a-c902-45cb-b45c-d1894458a26b"/>
              </extension>
            </extension>
            <extension url="http://hl7.org/fhir/StructureDefinition/textLink">
              <extension url="htmlid">
                <valueString value="15bd8c0c-fa53-4f5b-994b-487c7db3dc78"/>
              </extension>
              <extension url="data">
                <valueUri value="https://fhir.example.com/Observation/15bd8c0c-fa53-4f5b-994b-487c7db3dc78"/>
              </extension>
            </extension>
            <extension url="http://hl7.org/fhir/StructureDefinition/textLink">
              <extension url="htmlid">
                <valueString value="5019909f-097d-4a43-84d9-cc50143b8c82"/>
              </extension>
              <extension url="data">
                <valueUri value="https://fhir.example.com/Observation/5019909f-097d-4a43-84d9-cc50143b8c82"/>
              </extension>
            </extension>
            <extension url="http://hl7.org/fhir/StructureDefinition/textLink">
              <extension url="htmlid">
                <valueString value="5d269392-79c1-4129-a142-0cdee6b49ea4"/>
              </extension>
              <extension url="data">
                <valueUri value="https://fhir.example.com/Observation/5d269392-79c1-4129-a142-0cdee6b49ea4"/>
              </extension>
            </extension>
            <status value="generated"/><div xmlns="http://www.w3.org/1999/xhtml"><table border="1"><tr><th>Result</th><th>Value</th><th>Date</th><th>Status</th></tr><tr id="b0187efd-5f9b-474d-87bc-efebf877449a"><td>Cholesterol.total/Cholesterol in HDL [Molar ratio] in Serum or Plasma</td><td>4.1 mmol/L</td><td>Oct 31 2023 11:06</td><td>final</td></tr><tr id="f40b9e26-93b4-462b-8811-bdd6943873aa"><td>Lipid risk factors [Finding]</td><td>A combined CVD risk of which lipids is one component should be estimated to guide CVD risk management decisions. If lipid modifying medication is considered suggest checking first for treatable secondary causes of dyslipidaemia.</td><td>Oct 31 2023 11:06</td><td>final</td></tr><tr id="612b7e6a-c902-45cb-b45c-d1894458a26b"><td>Cholesterol in LDL [Moles/volume] in Serum or Plasma by calculation</td><td>3.6 mmol/L</td><td>Oct 31 2023 11:06</td><td>final</td></tr><tr id="15bd8c0c-fa53-4f5b-994b-487c7db3dc78"><td>Triglyceride [Moles/volume] in Serum or Plasma</td><td>1.7 mmol/L</td><td>Oct 31 2023 11:06</td><td>final</td></tr><tr id="5019909f-097d-4a43-84d9-cc50143b8c82"><td>Cholesterol [Moles/volume] in Serum or Plasma</td><td>5.7 mmol/L</td><td>Oct 31 2023 11:06</td><td>final</td></tr><tr id="5d269392-79c1-4129-a142-0cdee6b49ea4"><td>Cholesterol in HDL [Moles/volume] in Serum or Plasma</td><td>1.39 mmol/L</td><td>Oct 31 2023 11:06</td><td>final</td></tr></table></div>
          </text>
          <entry>
            <reference value="Observation/b0187efd-5f9b-474d-87bc-efebf877449a"/>
          </entry>
          <entry>
            <reference value="Observation/f40b9e26-93b4-462b-8811-bdd6943873aa"/>
          </entry>
          <entry>
            <reference value="Observation/612b7e6a-c902-45cb-b45c-d1894458a26b"/>
          </entry>
          <entry>
            <reference value="Observation/15bd8c0c-fa53-4f5b-994b-487c7db3dc78"/>
          </entry>
          <entry>
            <reference value="Observation/5019909f-097d-4a43-84d9-cc50143b8c82"/>
          </entry>
          <entry>
            <reference value="Observation/5d269392-79c1-4129-a142-0cdee6b49ea4"/>
          </entry>
        </section>
        <section>
          <title value="History of Procedures"/>
          <code>
            <coding>
              <system value="http://loinc.org"/>
              <code value="47519-4"/>
              <display value="History of Procedures Document"/>
            </coding>
          </code>
          <text>
            <extension url="http://hl7.org/fhir/StructureDefinition/textLink">
              <extension url="htmlid">
                <valueString value="55f43bcb-9032-46c0-b44b-18330024f9aa"/>
              </extension>
              <extension url="data">
                <valueUri value="https://fhir.example.com/Procedure/39252"/>
              </extension>
            </extension>
            <status value="generated"/><div xmlns="http://www.w3.org/1999/xhtml"><table border="1"><tr><th>Procedure</th><th>Date</th><th>Status</th></tr><tr id="55f43bcb-9032-46c0-b44b-18330024f9aa"><td>Total hip replacement</td><td>Apr 27 2000 20:00</td><td>Completed</td></tr></table></div>
          </text>
          <entry>
            <reference value="Procedure/39252"/>
          </entry>
        </section>
        <section>
          <title value="Device Use"/>
          <code>
            <coding>
              <system value="http://loinc.org"/>
              <code value="46264-8"/>
              <display value="History of medical device use"/>
            </coding>
          </code>
          <text>
            <extension url="http://hl7.org/fhir/StructureDefinition/textLink">
              <extension url="htmlid">
                <valueString value="e6ff83e1-4c35-43c6-a40b-d21642262844"/>
              </extension>
              <extension url="data">
                <valueUri value="https://fhir.example.com/DeviceUseStatement/eumfh-70-275-1"/>
              </extension>
            </extension>
            <status value="generated"/><div xmlns="http://www.w3.org/1999/xhtml"><table border="1"><tr><th>Device</th><th>Status</th><th>Body Site</th><th>Start</th><th>End</th></tr><tr id="e6ff83e1-4c35-43c6-a40b-d21642262844"><td>Hip prosthesis</td><td>active</td><td/><td/><td/></tr></table></div>
          </text>
          <entry>
            <reference value="DeviceUseStatement/eumfh-70-275-1"/>
          </entry>
        </section>
        <section>
          <title value="Vital Signs"/>
          <code>
            <coding>
              <system value="http://loinc.org"/>
              <code value="8716-3"/>
              <display value="Vital signs note"/>
            </coding>
          </code>
          <text>
            <extension url="http://hl7.org/fhir/StructureDefinition/textLink">
              <extension url="htmlid">
                <valueString value="36ff59b8-d5a7-438e-b8c6-cd54af10a4af"/>
              </extension>
              <extension url="data">
                <valueUri value="https://fhir.example.com/Observation/36ff59b8-d5a7-438e-b8c6-cd54af10a4af"/>
              </extension>
            </extension>
            <extension url="http://hl7.org/fhir/StructureDefinition/textLink">
              <extension url="htmlid">
                <valueString value="96e33a60-dbd8-47ce-b613-be954243939e"/>
              </extension>
              <extension url="data">
                <valueUri value="https://fhir.example.com/Observation/96e33a60-dbd8-47ce-b613-be954243939e"/>
              </extension>
            </extension>
            <extension url="http://hl7.org/fhir/StructureDefinition/textLink">
              <extension url="htmlid">
                <valueString value="4ea539e1-fff9-4f56-964f-650d9e69ce58"/>
              </extension>
              <extension url="data">
                <valueUri value="https://fhir.example.com/Observation/4ea539e1-fff9-4f56-964f-650d9e69ce58"/>
              </extension>
            </extension>
            <status value="generated"/><div xmlns="http://www.w3.org/1999/xhtml"><table border="1"><tr><th>Vital Sign</th><th>Value</th><th>Date</th><th>Status</th></tr><tr id="36ff59b8-d5a7-438e-b8c6-cd54af10a4af"><td>Body weight</td><td>91.5 kg</td><td>Apr 10 2024 05:58</td><td>final</td></tr><tr id="96e33a60-dbd8-47ce-b613-be954243939e"><td>Body mass index (BMI) [Ratio]</td><td>24.56 kg/m2</td><td>Apr 10 2024 05:58</td><td>final</td></tr><tr id="4ea539e1-fff9-4f56-964f-650d9e69ce58"><td>Blood pressure panel with all children optional</td><td>140/80 mmHg</td><td>Aug 30 2024 04:32</td><td>final</td></tr></table></div>
          </text>
          <entry>
            <reference value="Observation/36ff59b8-d5a7-438e-b8c6-cd54af10a4af"/>
          </entry>
          <entry>
            <reference value="Observation/96e33a60-dbd8-47ce-b613-be954243939e"/>
          </entry>
          <entry>
            <reference value="Observation/4ea539e1-fff9-4f56-964f-650d9e69ce58"/>
          </entry>
        </section>
        <section>
          <title value="Social History"/>
          <code>
            <coding>
              <system value="http://loinc.org"/>
              <code value="29762-2"/>
              <display value="Social history note"/>
            </coding>
          </code>
          <text>
            <extension url="http://hl7.org/fhir/StructureDefinition/textLink">
              <extension url="htmlid">
                <valueString value="9f906425-8c18-4580-ab30-61a56d7f4c05"/>
              </extension>
              <extension url="data">
                <valueUri value="https://fhir.example.com/Observation/9f906425-8c18-4580-ab30-61a56d7f4c05"/>
              </extension>
            </extension>
            <extension url="http://hl7.org/fhir/StructureDefinition/textLink">
              <extension url="htmlid">
                <valueString value="e2e3f8aa-df2a-4357-b01f-a9fba6bb9b41"/>
              </extension>
              <extension url="data">
                <valueUri value="https://fhir.example.com/Observation/e2e3f8aa-df2a-4357-b01f-a9fba6bb9b41"/>
              </extension>
            </extension>
            <status value="generated"/><div xmlns="http://www.w3.org/1999/xhtml"><table border="1"><tr><th>Social History Observation</th><th>Value</th><th>Date</th><th>Status</th></tr><tr id="9f906425-8c18-4580-ab30-61a56d7f4c05"><td>Tobacco smoking status</td><td>Never smoker</td><td>Oct 19 2022 20:00</td><td>final</td></tr><tr id="e2e3f8aa-df2a-4357-b01f-a9fba6bb9b41"><td>Alcoholic drinks per day</td><td>1 d</td><td>Jun 21 2016 20:00</td><td>final</td></tr></table></div>
          </text>
          <entry>
            <reference value="Observation/9f906425-8c18-4580-ab30-61a56d7f4c05"/>
          </entry>
          <entry>
            <reference value="Observation/e2e3f8aa-df2a-4357-b01f-a9fba6bb9b41"/>
          </entry>
        </section>
        <section>
          <title value="Alerts"/>
          <code>
            <coding>
              <system value="http://loinc.org"/>
              <code value="104605-1"/>
              <display value="Alert"/>
            </coding>
          </code>
          <text>
            <extension url="http://hl7.org/fhir/StructureDefinition/textLink">
              <extension url="htmlid">
                <valueString value="e8ae9c4e-8f5a-4270-bfac-02368c567fcf"/>
              </extension>
              <extension url="data">
                <valueUri value="https://fhir.example.com/Flag/e8ae9c4e-8f5a-4270-bfac-02368c567fcf"/>
              </extension>
            </extension>
            <status value="generated"/><div xmlns="http://www.w3.org/1999/xhtml"><table border="1"><tr><th>Alert</th><th>Status</th><th>Category</th><th>Priority</th><th>Start</th><th>End</th></tr><tr id="e8ae9c4e-8f5a-4270-bfac-02368c567fcf"><td>Shellfish free diet</td><td>Active</td><td>Diet</td><td/><td/><td/></tr></table></div>
          </text>
          <entry>
            <reference value="Flag/e8ae9c4e-8f5a-4270-bfac-02368c567fcf"/>
          </entry>
        </section>
        <section>
          <title value="Patient Story"/>
          <code>
            <coding>
              <system value="http://loinc.org"/>
              <code value="81338-6"/>
              <display value="Patient Goals, preferences, and priorities for care experience"/>
            </coding>
          </code>
          <text>
            <status value="generated"/><div xml:lang="en-NZ" xmlns="http://www.w3.org/1999/xhtml" lang="en-NZ">Patient undergoing lifestyle changes to lower blood pressure.</div>
          </text>
          <entry>
            <reference value="Consent/080d85fa-c807-42d1-a3af-b3ee70858a54"/>
          </entry>
        </section>
        <section>
          <title value="Advance Directives"/>
          <code>
            <coding>
              <system value="http://loinc.org"/>
              <code value="42348-3"/>
              <display value="Advance healthcare directives"/>
            </coding>
          </code>
          <text>
            <extension url="http://hl7.org/fhir/StructureDefinition/textLink">
              <extension url="htmlid">
                <valueString value="080d85fa-c807-42d1-a3af-b3ee70858a54"/>
              </extension>
              <extension url="data">
                <valueUri value="https://fhir.example.com/Consent/080d85fa-c807-42d1-a3af-b3ee70858a54"/>
              </extension>
            </extension>
            <status value="generated"/><div xmlns="http://www.w3.org/1999/xhtml"><table border="1"><tr><th>Scope</th><th>Status</th><th>Category</th><th>Date</th><th>Performer</th></tr><tr id="080d85fa-c807-42d1-a3af-b3ee70858a54"><td>Treatment</td><td>active</td><td>Do Not Resuscitate</td><td>Aug 31 2021 20:00</td><td/></tr></table></div>
          </text>
          <entry>
            <reference value="Consent/080d85fa-c807-42d1-a3af-b3ee70858a54"/>
          </entry>
        </section>
        <section>
          <title value="Functional Status"/>
          <code>
            <coding>
              <system value="http://loinc.org"/>
              <code value="47420-5"/>
              <display value="Functional status assessment note"/>
            </coding>
          </code>
          <text>
            <extension url="http://hl7.org/fhir/StructureDefinition/textLink">
              <extension url="htmlid">
                <valueString value="4f3d8f79-2f96-48c5-b346-d47f0c66c981"/>
              </extension>
              <extension url="data">
                <valueUri value="https://fhir.example.com/Condition/4f3d8f79-2f96-48c5-b346-d47f0c66c981"/>
              </extension>
            </extension>
            <status value="generated"/><div xmlns="http://www.w3.org/1999/xhtml"><table border="1"><tr><th>Code</th><th>Onset</th><th>Clinical Status</th><th>Verification Status</th><th>Severity</th></tr><tr id="4f3d8f79-2f96-48c5-b346-d47f0c66c981"><td>Impaired Mobility</td><td>May 24 2016 20:00</td><td/><td/><td/></tr></table></div>
          </text>
          <entry>
            <reference value="Condition/4f3d8f79-2f96-48c5-b346-d47f0c66c981"/>
          </entry>
        </section>
        <section>
          <title value="History of Past Problems"/>
          <code>
            <coding>
              <system value="http://loinc.org"/>
              <code value="11348-0"/>
              <display value="History of Past illness note"/>
            </coding>
          </code>
          <text>
            <extension url="http://hl7.org/fhir/StructureDefinition/textLink">
              <extension url="htmlid">
                <valueString value="77efacd9-b5a6-4b35-9764-269017ea7567"/>
              </extension>
              <extension url="data">
                <valueUri value="https://fhir.example.com/Condition/77efacd9-b5a6-4b35-9764-269017ea7567"/>
              </extension>
            </extension>
            <status value="generated"/><div xmlns="http://www.w3.org/1999/xhtml"><table border="1"><tr><th>Past Problem</th><th>Onset</th><th>Clinical Status</th><th>Verification Status</th><th>Severity</th></tr><tr id="77efacd9-b5a6-4b35-9764-269017ea7567"><td>Fever</td><td>May 24 2013 20:00</td><td/><td/><td/></tr></table></div>
          </text>
          <entry>
            <reference value="Condition/77efacd9-b5a6-4b35-9764-269017ea7567"/>
          </entry>
        </section>
        <section>
          <title value="History of Pregnancy"/>
          <code>
            <coding>
              <system value="http://loinc.org"/>
              <code value="10162-6"/>
              <display value="History of pregnancies Narrative"/>
            </coding>
          </code>
          <text>
            <extension url="http://hl7.org/fhir/StructureDefinition/textLink">
              <extension url="htmlid">
                <valueString value="f241ac65-5eab-49a0-8b92-7fb263274110"/>
              </extension>
              <extension url="data">
                <valueUri value="https://fhir.example.com/Observation/f241ac65-5eab-49a0-8b92-7fb263274110"/>
              </extension>
            </extension>
            <status value="generated"/><div xmlns="http://www.w3.org/1999/xhtml"><table border="1"><tr><th>Pregnancy Observation</th><th>Value</th><th>Date</th><th>Status</th></tr><tr id="f241ac65-5eab-49a0-8b92-7fb263274110"><td>Pregnancy status</td><td>Not Pregnant</td><td>Jan 9 2020 19:00</td><td>final</td></tr></table></div>
          </text>
          <entry>
            <reference value="Observation/f241ac65-5eab-49a0-8b92-7fb263274110"/>
          </entry>
        </section>
        <section>
          <title value="Plan of Care"/>
          <code>
            <coding>
              <system value="http://loinc.org"/>
              <code value="18776-5"/>
              <display value="Plan of care note"/>
            </coding>
          </code>
          <text>
            <extension url="http://hl7.org/fhir/StructureDefinition/textLink">
              <extension url="htmlid">
                <valueString value="85d57ac7-ea2d-47cf-b019-b867f876ee7c"/>
              </extension>
              <extension url="data">
                <valueUri value="https://fhir.example.com/CarePlan/85d57ac7-ea2d-47cf-b019-b867f876ee7c"/>
              </extension>
            </extension>
            <status value="generated"/><div xmlns="http://www.w3.org/1999/xhtml"><table border="1"><tr><th>Title</th><th>Description</th><th>Status</th><th>Intent</th><th>Category</th><th>Period Start</th><th>Period End</th></tr><tr id="85d57ac7-ea2d-47cf-b019-b867f876ee7c"><td>Weight Measured</td><td>Manage obesity and weight loss</td><td>Active</td><td>Plan</td><td>Weight management plan</td><td/><td>May 31 2017 20:00</td></tr></table></div>
          </text>
          <entry>
            <reference value="CarePlan/85d57ac7-ea2d-47cf-b019-b867f876ee7c"/>
          </entry>
        </section>
      </Composition>
    </resource>
  </entry>
  <entry>
    <fullUrl value="https://fhir.example.com/Patient/d174bd1a-b368-41e6-83a2-af77f2b3c60f"/>
    <resource>
      <Patient>
        <id value="d174bd1a-b368-41e6-83a2-af77f2b3c60f"/>
        <meta>
          <profile value="http://hl7.org/fhir/uv/ips/StructureDefinition/Patient-uv-ips"/>
        </meta>
        <text>
          <status value="generated"/><div xml:lang="en-NZ" xmlns="http://www.w3.org/1999/xhtml"><a name="Patient_d174bd1a-b368-41e6-83a2-af77f2b3c60f"> </a>Name: Patricia JORDANA</div>
        </text>
        <identifier>
          <system value="https://standards.digital.health.nz/ns/nhi-id"/>
          <value value="ABC1234"/>
        </identifier>
        <name>
          <use value="usual"/>
          <family value="JORDANA"/>
          <given value="Patricia"/>
        </name>
        <telecom>
          <system value="other"/>
          <value value="+1234567890"/>
          <use value="mobile"/>
        </telecom>
        <gender value="female"/>
        <birthDate value="1956-09-30"/>
        <address>
          <use value="home"/>
          <type value="physical"/>
          <line value="3"/>
          <line value="Worcester Drive"/>
          <line value="Rototuna North"/>
          <city value="Hamilton"/>
          <postalCode value="3210"/>
        </address>
        <maritalStatus>
          <coding>
            <system value="http://terminology.hl7.org/CodeSystem/v3-MaritalStatus"/>
            <code value="M"/>
            <display value="Married"/>
          </coding>
        </maritalStatus>
        <contact>
          <relationship>
            <coding>
              <system value="http://terminology.hl7.org/CodeSystem/v2-0131"/>
              <code value="C"/>
              <display value="Emergency Contact"/>
            </coding>
          </relationship>
          <name>
            <use value="usual"/>
            <family value="JORDANA"/>
            <given value="Vincent"/>
            <given value="JORDANA"/>
          </name>
          <telecom>
            <system value="phone"/>
            <value value="21884820"/>
            <use value="mobile"/>
          </telecom>
          <telecom>
            <system value="phone"/>
            <value value="853 3279"/>
            <use value="work"/>
          </telecom>
          <address>
            <use value="home"/>
            <type value="physical"/>
            <line value="3 Worcester Drive"/>
            <line value="Rototuna North"/>
            <city value="Hamilton"/>
          </address>
        </contact>
      </Patient>
    </resource>
  </entry>
  <entry>
    <fullUrl value="https://fhir.example.com/Organization/7a17027f-acc0-4d77-bf84-c0dad8f7c881"/>
    <resource>
      <Organization>
        <id value="7a17027f-acc0-4d77-bf84-c0dad8f7c881"/>
        <text>
          <status value="generated"/><div xmlns="http://www.w3.org/1999/xhtml"><a name="Organization_7a17027f-acc0-4d77-bf84-c0dad8f7c881"> </a><p class="res-header-id"><b>Generated Narrative: Organization 7a17027f-acc0-4d77-bf84-c0dad8f7c881</b></p><a name="7a17027f-acc0-4d77-bf84-c0dad8f7c881"> </a><a name="hc7a17027f-acc0-4d77-bf84-c0dad8f7c881"> </a><p><b>identifier</b>: <code>https://standards.digital.health.nz/ns/hpi-facility-id</code>/F2N000</p><p><b>name</b>: NorthCare Pukete Road-Thomas Road</p><p><b>partOf</b>: <a href="Bundle-bundle-ips-all-sections.html#Organization_8f8635dc-694e-408f-8ffe-1610d50f9823">Organization NorthCare Health System</a></p></div>
        </text>
        <identifier>
          <system value="https://standards.digital.health.nz/ns/hpi-facility-id"/>
          <value value="F2N000"/>
        </identifier>
        <name value="NorthCare Pukete Road-Thomas Road"/>
        <partOf>
          <reference value="Organization/8f8635dc-694e-408f-8ffe-1610d50f9823"/>
        </partOf>
      </Organization>
    </resource>
  </entry>
  <entry>
    <fullUrl value="https://fhir.example.com/Organization/8f8635dc-694e-408f-8ffe-1610d50f9823"/>
    <resource>
      <Organization>
        <id value="8f8635dc-694e-408f-8ffe-1610d50f9823"/>
        <text>
          <status value="generated"/><div xmlns="http://www.w3.org/1999/xhtml"><a name="Organization_8f8635dc-694e-408f-8ffe-1610d50f9823"> </a><p class="res-header-id"><b>Generated Narrative: Organization 8f8635dc-694e-408f-8ffe-1610d50f9823</b></p><a name="8f8635dc-694e-408f-8ffe-1610d50f9823"> </a><a name="hc8f8635dc-694e-408f-8ffe-1610d50f9823"> </a><p><b>identifier</b>: <code>https://standards.digital.health.nz/ns/hpi-facility-id</code>/F2N001</p><p><b>name</b>: NorthCare Health System</p></div>
        </text>
        <identifier>
          <system value="https://standards.digital.health.nz/ns/hpi-facility-id"/>
          <value value="F2N001"/>
        </identifier>
        <name value="NorthCare Health System"/>
      </Organization>
    </resource>
  </entry>
  <entry>
    <fullUrl value="https://fhir.example.com/PractitionerRole/94d12c8d-a3df-47a7-a0bb-0f29d64bafe2"/>
    <resource>
      <PractitionerRole>
        <id value="94d12c8d-a3df-47a7-a0bb-0f29d64bafe2"/>
        <text>
          <status value="generated"/><div xmlns="http://www.w3.org/1999/xhtml"><a name="PractitionerRole_94d12c8d-a3df-47a7-a0bb-0f29d64bafe2"> </a><p class="res-header-id"><b>Generated Narrative: PractitionerRole 94d12c8d-a3df-47a7-a0bb-0f29d64bafe2</b></p><a name="94d12c8d-a3df-47a7-a0bb-0f29d64bafe2"> </a><a name="hc94d12c8d-a3df-47a7-a0bb-0f29d64bafe2"> </a><p><b>practitioner</b>: <a href="Bundle-bundle-ips-all-sections.html#Practitioner_816cf057-b736-4e08-baed-cc21e081b784">Practitioner HASHIRA COORAY COORAY </a></p><p><b>code</b>: <span title="Codes:{http://snomed.info/sct 158965000}">Doctor</span></p></div>
        </text>
        <practitioner>
          <reference value="Practitioner/816cf057-b736-4e08-baed-cc21e081b784"/>
        </practitioner>
        <code>
          <coding>
            <system value="http://snomed.info/sct"/>
            <code value="158965000"/>
            <display value="Doctor"/>
          </coding>
        </code>
      </PractitionerRole>
    </resource>
  </entry>
  <entry>
    <fullUrl value="https://fhir.example.com/Practitioner/816cf057-b736-4e08-baed-cc21e081b784"/>
    <resource>
      <Practitioner>
        <id value="816cf057-b736-4e08-baed-cc21e081b784"/>
        <text>
          <status value="generated"/><div xmlns="http://www.w3.org/1999/xhtml"><a name="Practitioner_816cf057-b736-4e08-baed-cc21e081b784"> </a><p class="res-header-id"><b>Generated Narrative: Practitioner 816cf057-b736-4e08-baed-cc21e081b784</b></p><a name="816cf057-b736-4e08-baed-cc21e081b784"> </a><a name="hc816cf057-b736-4e08-baed-cc21e081b784"> </a><p><b>name</b>: HASHIRA COORAY COORAY </p><p><b>telecom</b>: ph: 07 850 9900(Work)</p></div>
        </text>
        <name>
          <use value="usual"/>
          <family value="COORAY"/>
          <given value="HASHIRA"/>
          <given value="COORAY"/>
        </name>
        <telecom>
          <system value="phone"/>
          <value value="07 850 9900"/>
          <use value="work"/>
        </telecom>
      </Practitioner>
    </resource>
  </entry>
  <entry>
    <fullUrl value="https://fhir.example.com/AllergyIntolerance/9838cf73-c30d-4aa5-8ed8-36a079060b81"/>
    <resource>
      <AllergyIntolerance>
        <id value="9838cf73-c30d-4aa5-8ed8-36a079060b81"/>
        <text>
          <status value="generated"/><div xmlns="http://www.w3.org/1999/xhtml"><a name="AllergyIntolerance_9838cf73-c30d-4aa5-8ed8-36a079060b81"> </a><p class="res-header-id"><b>Generated Narrative: AllergyIntolerance 9838cf73-c30d-4aa5-8ed8-36a079060b81</b></p><a name="9838cf73-c30d-4aa5-8ed8-36a079060b81"> </a><a name="hc9838cf73-c30d-4aa5-8ed8-36a079060b81"> </a><p><b>clinicalStatus</b>: <span title="Codes:{http://terminology.hl7.org/CodeSystem/allergyintolerance-clinical active}">Active</span></p><p><b>verificationStatus</b>: <span title="Codes:{http://terminology.hl7.org/CodeSystem/allergyintolerance-verification confirmed}">Confirmed</span></p><p><b>code</b>: <span title="Codes:{http://snomed.info/sct 764146007}, {http://www.whocc.no/atc J01CA}">Penicillin</span></p><p><b>patient</b>: <a href="Bundle-bundle-ips-all-sections.html#Patient_d174bd1a-b368-41e6-83a2-af77f2b3c60f">Patricia JORDANA  Female, DoB: 1956-09-30 ( https://standards.digital.health.nz/ns/nhi-id#ABC1234)</a></p></div>
        </text>
        <clinicalStatus>
          <coding>
            <system value="http://terminology.hl7.org/CodeSystem/allergyintolerance-clinical"/>
            <code value="active"/>
          </coding>
        </clinicalStatus>
        <verificationStatus>
          <coding>
            <system value="http://terminology.hl7.org/CodeSystem/allergyintolerance-verification"/>
            <code value="confirmed"/>
          </coding>
        </verificationStatus>
        <code>
          <coding>
            <system value="http://snomed.info/sct"/>
            <code value="764146007"/>
            <display value="Penicillin"/>
          </coding>
          <coding>
            <system value="http://www.whocc.no/atc"/>
            <code value="J01CA"/>
            <display value="Penicillins with extended spectrum"/>
          </coding>
        </code>
        <patient>
          <reference value="Patient/d174bd1a-b368-41e6-83a2-af77f2b3c60f"/>
        </patient>
      </AllergyIntolerance>
    </resource>
  </entry>
  <entry>
    <fullUrl value="https://fhir.example.com/Condition/8039e4a7-d459-454c-92a5-6c17ca2a824b"/>
    <resource>
      <Condition>
        <id value="8039e4a7-d459-454c-92a5-6c17ca2a824b"/>
        <text>
          <status value="generated"/><div xmlns="http://www.w3.org/1999/xhtml"><a name="Condition_8039e4a7-d459-454c-92a5-6c17ca2a824b"> </a><p class="res-header-id"><b>Generated Narrative: Condition 8039e4a7-d459-454c-92a5-6c17ca2a824b</b></p><a name="8039e4a7-d459-454c-92a5-6c17ca2a824b"> </a><a name="hc8039e4a7-d459-454c-92a5-6c17ca2a824b"> </a><p><b>clinicalStatus</b>: <span title="Codes:{http://terminology.hl7.org/CodeSystem/condition-clinical active}">Active</span></p><p><b>verificationStatus</b>: <span title="Codes:{http://terminology.hl7.org/CodeSystem/condition-ver-status confirmed}">Confirmed</span></p><p><b>code</b>: <span title="Codes:{http://snomed.info/sct 59621000}">Essential hypertension</span></p><p><b>subject</b>: <a href="Bundle-bundle-ips-all-sections.html#Patient_d174bd1a-b368-41e6-83a2-af77f2b3c60f">Patricia JORDANA  Female, DoB: 1956-09-30 ( https://standards.digital.health.nz/ns/nhi-id#ABC1234)</a></p><p><b>onset</b>: 2016-05-25</p><p><b>recordedDate</b>: 2016-05-25</p><p><b>asserter</b>: <a href="Bundle-bundle-ips-all-sections.html#Practitioner_816cf057-b736-4e08-baed-cc21e081b784">Practitioner HASHIRA COORAY COORAY </a></p></div>
        </text>
        <clinicalStatus>
          <coding>
            <system value="http://terminology.hl7.org/CodeSystem/condition-clinical"/>
            <code value="active"/>
          </coding>
        </clinicalStatus>
        <verificationStatus>
          <coding>
            <system value="http://terminology.hl7.org/CodeSystem/condition-ver-status"/>
            <code value="confirmed"/>
          </coding>
        </verificationStatus>
        <code>
          <coding>
            <system value="http://snomed.info/sct"/>
            <code value="59621000"/>
            <display value="Essential hypertension"/>
          </coding>
        </code>
        <subject>
          <reference value="Patient/d174bd1a-b368-41e6-83a2-af77f2b3c60f"/>
        </subject>
        <onsetDateTime value="2016-05-25"/>
        <recordedDate value="2016-05-25"/>
        <asserter>
          <reference value="Practitioner/816cf057-b736-4e08-baed-cc21e081b784"/>
        </asserter>
      </Condition>
    </resource>
  </entry>
  <entry>
    <fullUrl value="https://fhir.example.com/Condition/f8ab8ac1-56d1-4239-8303-dc70c1a3d0e1"/>
    <resource>
      <Condition>
        <id value="f8ab8ac1-56d1-4239-8303-dc70c1a3d0e1"/>
        <text>
          <status value="generated"/><div xmlns="http://www.w3.org/1999/xhtml"><a name="Condition_f8ab8ac1-56d1-4239-8303-dc70c1a3d0e1"> </a><p class="res-header-id"><b>Generated Narrative: Condition f8ab8ac1-56d1-4239-8303-dc70c1a3d0e1</b></p><a name="f8ab8ac1-56d1-4239-8303-dc70c1a3d0e1"> </a><a name="hcf8ab8ac1-56d1-4239-8303-dc70c1a3d0e1"> </a><p><b>clinicalStatus</b>: <span title="Codes:{http://terminology.hl7.org/CodeSystem/condition-clinical active}">Active</span></p><p><b>verificationStatus</b>: <span title="Codes:{http://terminology.hl7.org/CodeSystem/condition-ver-status confirmed}">Confirmed</span></p><p><b>code</b>: <span title="Codes:{http://snomed.info/sct 90560007}">Gout</span></p><p><b>subject</b>: <a href="Bundle-bundle-ips-all-sections.html#Patient_d174bd1a-b368-41e6-83a2-af77f2b3c60f">Patricia JORDANA  Female, DoB: 1956-09-30 ( https://standards.digital.health.nz/ns/nhi-id#ABC1234)</a></p><p><b>onset</b>: 2016-05-25</p><p><b>recordedDate</b>: 2020-10-01</p></div>
        </text>
        <clinicalStatus>
          <coding>
            <system value="http://terminology.hl7.org/CodeSystem/condition-clinical"/>
            <code value="active"/>
          </coding>
        </clinicalStatus>
        <verificationStatus>
          <coding>
            <system value="http://terminology.hl7.org/CodeSystem/condition-ver-status"/>
            <code value="confirmed"/>
          </coding>
        </verificationStatus>
        <code>
          <coding>
            <system value="http://snomed.info/sct"/>
            <code value="90560007"/>
            <display value="Gout"/>
          </coding>
        </code>
        <subject>
          <reference value="Patient/d174bd1a-b368-41e6-83a2-af77f2b3c60f"/>
        </subject>
        <onsetDateTime value="2016-05-25"/>
        <recordedDate value="2020-10-01"/>
      </Condition>
    </resource>
  </entry>
  <entry>
    <fullUrl value="https://fhir.example.com/MedicationStatement/c3d31980-2a88-45b6-a7af-3fe8d32cc6fa"/>
    <resource>
      <MedicationStatement>
        <id value="c3d31980-2a88-45b6-a7af-3fe8d32cc6fa"/>
        <text>
          <status value="generated"/><div xmlns="http://www.w3.org/1999/xhtml"><a name="MedicationStatement_c3d31980-2a88-45b6-a7af-3fe8d32cc6fa"> </a><p class="res-header-id"><b>Generated Narrative: MedicationStatement c3d31980-2a88-45b6-a7af-3fe8d32cc6fa</b></p><a name="c3d31980-2a88-45b6-a7af-3fe8d32cc6fa"> </a><a name="hcc3d31980-2a88-45b6-a7af-3fe8d32cc6fa"> </a><p><b>status</b>: Stopped</p><p><b>medication</b>: <span title="Codes:{http://snomed.info/sct 318913001}">cilazapril 500 microgram tablet, 90</span></p><p><b>subject</b>: <a href="Bundle-bundle-ips-all-sections.html#Patient_d174bd1a-b368-41e6-83a2-af77f2b3c60f">Patricia JORDANA  Female, DoB: 1956-09-30 ( https://standards.digital.health.nz/ns/nhi-id#ABC1234)</a></p><p><b>effective</b>: 2023-12-01</p><p><b>informationSource</b>: <a href="Bundle-bundle-ips-all-sections.html#Organization_7a17027f-acc0-4d77-bf84-c0dad8f7c881">Organization NorthCare Pukete Road-Thomas Road</a></p><blockquote><p><b>dosage</b></p><p><b>text</b>: Take 1 daily</p><h3>DoseAndRates</h3><table class="grid"><tr><td style="display: none">-</td><td><b>Dose[x]</b></td></tr><tr><td style="display: none">*</td><td>1 tablet<span style="background: LightGoldenRodYellow"> (Details: SNOMED CT  code428673006 = 'Tablet - unit of product usage (qualifier value)')</span></td></tr></table></blockquote></div>
        </text>
        <status value="stopped"/>
        <medicationCodeableConcept>
          <coding>
            <system value="http://snomed.info/sct"/>
            <code value="318913001"/>
            <display value="Product containing cilazapril (medicinal product)"/>
          </coding>
          <text value="cilazapril 500 microgram tablet, 90"/>
        </medicationCodeableConcept>
        <subject>
          <reference value="Patient/d174bd1a-b368-41e6-83a2-af77f2b3c60f"/>
        </subject>
        <effectiveDateTime value="2023-12-01"/>
        <informationSource>
          <reference value="Organization/7a17027f-acc0-4d77-bf84-c0dad8f7c881"/>
        </informationSource>
        <dosage>
          <text value="Take 1 daily"/>
          <doseAndRate>
            <doseQuantity>
              <value value="1"/>
              <unit value="tablet"/>
              <system value="http://snomed.info/sct"/>
              <code value="428673006"/>
            </doseQuantity>
          </doseAndRate>
        </dosage>
      </MedicationStatement>
    </resource>
  </entry>
  <entry>
    <fullUrl value="https://fhir.example.com/MedicationStatement/b8dac343-16d7-49bf-ac36-b15e6726c343"/>
    <resource>
      <MedicationStatement>
        <id value="b8dac343-16d7-49bf-ac36-b15e6726c343"/>
        <text>
          <status value="generated"/><div xmlns="http://www.w3.org/1999/xhtml"><a name="MedicationStatement_b8dac343-16d7-49bf-ac36-b15e6726c343"> </a><p class="res-header-id"><b>Generated Narrative: MedicationStatement b8dac343-16d7-49bf-ac36-b15e6726c343</b></p><a name="b8dac343-16d7-49bf-ac36-b15e6726c343"> </a><a name="hcb8dac343-16d7-49bf-ac36-b15e6726c343"> </a><p><b>status</b>: Active</p><p><b>medication</b>: <span title="Codes:{http://snomed.info/sct 108575001}">lisinopril 5 mg tablet</span></p><p><b>subject</b>: <a href="Bundle-bundle-ips-all-sections.html#Patient_d174bd1a-b368-41e6-83a2-af77f2b3c60f">Patricia JORDANA  Female, DoB: 1956-09-30 ( https://standards.digital.health.nz/ns/nhi-id#ABC1234)</a></p><p><b>effective</b>: 2024-08-13</p><p><b>informationSource</b>: <a href="Bundle-bundle-ips-all-sections.html#Organization_7a17027f-acc0-4d77-bf84-c0dad8f7c881">Organization NorthCare Pukete Road-Thomas Road</a></p><blockquote><p><b>dosage</b></p><p><b>text</b>: Take One tablet once daily</p><p><b>timing</b>: Once per 1 day</p><p><b>route</b>: <span title="Codes:{http://terminology.hl7.org/CodeSystem/v3-RouteOfAdministration PO}">Swallow, oral</span></p><h3>DoseAndRates</h3><table class="grid"><tr><td style="display: none">-</td><td><b>Dose[x]</b></td></tr><tr><td style="display: none">*</td><td>1 tablet<span style="background: LightGoldenRodYellow"> (Details: SNOMED CT  code428673006 = 'Tablet - unit of product usage (qualifier value)')</span></td></tr></table></blockquote></div>
        </text>
        <status value="active"/>
        <medicationCodeableConcept>
          <coding>
            <system value="http://snomed.info/sct"/>
            <code value="108575001"/>
            <display value="Product containing lisinopril (medicinal product)"/>
          </coding>
          <text value="lisinopril 5 mg tablet"/>
        </medicationCodeableConcept>
        <subject>
          <reference value="Patient/d174bd1a-b368-41e6-83a2-af77f2b3c60f"/>
        </subject>
        <effectiveDateTime value="2024-08-13"/>
        <informationSource>
          <reference value="Organization/7a17027f-acc0-4d77-bf84-c0dad8f7c881"/>
        </informationSource>
        <dosage>
          <text value="Take One tablet once daily"/>
          <timing>
            <repeat>
              <frequency value="1"/>
              <period value="1"/>
              <periodUnit value="d"/>
            </repeat>
          </timing>
          <route>
            <coding>
              <system value="http://terminology.hl7.org/CodeSystem/v3-RouteOfAdministration"/>
              <code value="PO"/>
              <display value="Swallow, oral"/>
            </coding>
          </route>
          <doseAndRate>
            <doseQuantity>
              <value value="1"/>
              <unit value="tablet"/>
              <system value="http://snomed.info/sct"/>
              <code value="428673006"/>
            </doseQuantity>
          </doseAndRate>
        </dosage>
      </MedicationStatement>
    </resource>
  </entry>
  <entry>
    <fullUrl value="https://fhir.example.com/MedicationStatement/b8e4d4a8-2c18-4f03-88dc-06f5f44f8058"/>
    <resource>
      <MedicationStatement>
        <id value="b8e4d4a8-2c18-4f03-88dc-06f5f44f8058"/>
        <text>
          <status value="generated"/><div xmlns="http://www.w3.org/1999/xhtml"><a name="MedicationStatement_b8e4d4a8-2c18-4f03-88dc-06f5f44f8058"> </a><p class="res-header-id"><b>Generated Narrative: MedicationStatement b8e4d4a8-2c18-4f03-88dc-06f5f44f8058</b></p><a name="b8e4d4a8-2c18-4f03-88dc-06f5f44f8058"> </a><a name="hcb8e4d4a8-2c18-4f03-88dc-06f5f44f8058"> </a><p><b>status</b>: Active</p><p><b>medication</b>: <span title="Codes:{http://www.whocc.no/atc C05AA08}">Ultraproct - cinchocaine 0.5% (5 mg/g) + fluocortolone hexanoate 0.095% (945 microgram/g) + fluocortolone pivalate 0.092% (918 microgram/g) ointment</span></p><p><b>subject</b>: <a href="Bundle-bundle-ips-all-sections.html#Patient_d174bd1a-b368-41e6-83a2-af77f2b3c60f">Patricia JORDANA  Female, DoB: 1956-09-30 ( https://standards.digital.health.nz/ns/nhi-id#ABC1234)</a></p><p><b>effective</b>: 2024-08-30</p><p><b>informationSource</b>: <a href="Bundle-bundle-ips-all-sections.html#Organization_7a17027f-acc0-4d77-bf84-c0dad8f7c881">Organization NorthCare Pukete Road-Thomas Road</a></p><blockquote><p><b>dosage</b></p><p><b>text</b>: apply a small amount to the affected area up to 4 times daily on the first day, then twice daily for at least 1 week; continue for up to a maximum of 4 weeks</p><h3>DoseAndRates</h3><table class="grid"><tr><td style="display: none">-</td><td><b>Dose[x]</b></td></tr><tr><td style="display: none">*</td><td>1 ointment<span style="background: LightGoldenRodYellow"> (Details: SNOMED CT  code385101003 = 'Ointment')</span></td></tr></table></blockquote></div>
        </text>
        <status value="active"/>
        <medicationCodeableConcept>
          <coding>
            <system value="http://www.whocc.no/atc"/>
            <code value="C05AA08"/>
            <display value="Fluocortolone"/>
          </coding>
          <text value="Ultraproct - cinchocaine 0.5% (5 mg/g) + fluocortolone hexanoate 0.095% (945 microgram/g) + fluocortolone pivalate 0.092% (918 microgram/g) ointment"/>
        </medicationCodeableConcept>
        <subject>
          <reference value="Patient/d174bd1a-b368-41e6-83a2-af77f2b3c60f"/>
        </subject>
        <effectiveDateTime value="2024-08-30"/>
        <informationSource>
          <reference value="Organization/7a17027f-acc0-4d77-bf84-c0dad8f7c881"/>
        </informationSource>
        <dosage>
          <text value="apply a small amount to the affected area up to 4 times daily on the first day, then twice daily for at least 1 week; continue for up to a maximum of 4 weeks"/>
          <doseAndRate>
            <doseQuantity>
              <value value="1"/>
              <unit value="ointment"/>
              <system value="http://snomed.info/sct"/>
              <code value="385101003"/>
            </doseQuantity>
          </doseAndRate>
        </dosage>
      </MedicationStatement>
    </resource>
  </entry>
  <entry>
    <fullUrl value="https://fhir.example.com/Immunization/17b5a6d7-307b-4726-8c8c-0031e61582ce"/>
    <resource>
      <Immunization>
        <id value="17b5a6d7-307b-4726-8c8c-0031e61582ce"/>
        <text>
          <status value="generated"/><div xmlns="http://www.w3.org/1999/xhtml"><a name="Immunization_17b5a6d7-307b-4726-8c8c-0031e61582ce"> </a><p class="res-header-id"><b>Generated Narrative: Immunization 17b5a6d7-307b-4726-8c8c-0031e61582ce</b></p><a name="17b5a6d7-307b-4726-8c8c-0031e61582ce"> </a><a name="hc17b5a6d7-307b-4726-8c8c-0031e61582ce"> </a><p><b>status</b>: Completed</p><p><b>vaccineCode</b>: <span title="Codes:{http://hl7.org/fhir/sid/cvx 141}">Influenza, split virus, trivalent, preservative</span></p><p><b>patient</b>: <a href="Bundle-bundle-ips-all-sections.html#Patient_d174bd1a-b368-41e6-83a2-af77f2b3c60f">Patricia JORDANA  Female, DoB: 1956-09-30 ( https://standards.digital.health.nz/ns/nhi-id#ABC1234)</a></p><p><b>occurrence</b>: 2024-04-10</p><p><b>lotNumber</b>: H06</p><p><b>site</b>: <span title="Codes:{http://snomed.info/sct 16217701000119102}">Structure of left deltoid muscle</span></p><p><b>route</b>: <span title="Codes:{http://terminology.hl7.org/CodeSystem/v3-RouteOfAdministration IM}">Injection, intramuscular</span></p><h3>Performers</h3><table class="grid"><tr><td style="display: none">-</td><td><b>Actor</b></td></tr><tr><td style="display: none">*</td><td><a href="Bundle-bundle-ips-all-sections.html#Organization_7a17027f-acc0-4d77-bf84-c0dad8f7c881">Organization NorthCare Pukete Road-Thomas Road</a></td></tr></table><h3>ProtocolApplieds</h3><table class="grid"><tr><td style="display: none">-</td><td><b>Series</b></td><td><b>DoseNumber[x]</b></td></tr><tr><td style="display: none">*</td><td>1 (Over 65 years (Influenza))</td><td>1</td></tr></table></div>
        </text>
        <status value="completed"/>
        <vaccineCode>
          <coding>
            <system value="http://hl7.org/fhir/sid/cvx"/>
            <code value="141"/>
            <display value="Influenza, split virus, trivalent, preservative"/>
          </coding>
        </vaccineCode>
        <patient>
          <reference value="Patient/d174bd1a-b368-41e6-83a2-af77f2b3c60f"/>
        </patient>
        <occurrenceDateTime value="2024-04-10"/>
        <lotNumber value="H06"/>
        <site>
          <coding>
            <system value="http://snomed.info/sct"/>
            <code value="16217701000119102"/>
            <display value="Structure of left deltoid muscle"/>
          </coding>
        </site>
        <route>
          <coding>
            <system value="http://terminology.hl7.org/CodeSystem/v3-RouteOfAdministration"/>
            <code value="IM"/>
            <display value="Injection, intramuscular"/>
          </coding>
        </route>
        <performer>
          <actor>
            <reference value="Organization/7a17027f-acc0-4d77-bf84-c0dad8f7c881"/>
          </actor>
        </performer>
        <protocolApplied>
          <series value="1 (Over 65 years (Influenza))"/>
          <doseNumberPositiveInt value="1"/>
        </protocolApplied>
      </Immunization>
    </resource>
  </entry>
  <entry>
    <fullUrl value="https://fhir.example.com/Immunization/14e8b0d8-b4e4-4f8e-b263-ef385787453b"/>
    <resource>
      <Immunization>
        <id value="14e8b0d8-b4e4-4f8e-b263-ef385787453b"/>
        <text>
          <status value="generated"/><div xmlns="http://www.w3.org/1999/xhtml"><a name="Immunization_14e8b0d8-b4e4-4f8e-b263-ef385787453b"> </a><p class="res-header-id"><b>Generated Narrative: Immunization 14e8b0d8-b4e4-4f8e-b263-ef385787453b</b></p><a name="14e8b0d8-b4e4-4f8e-b263-ef385787453b"> </a><a name="hc14e8b0d8-b4e4-4f8e-b263-ef385787453b"> </a><p><b>status</b>: Completed</p><p><b>vaccineCode</b>: <span title="Codes:{http://hl7.org/fhir/sid/cvx 300}">COVID-19, mRNA, LNP-S, bivalent, PF, 30 mcg/0.3 mL dose</span></p><p><b>patient</b>: <a href="Bundle-bundle-ips-all-sections.html#Patient_d174bd1a-b368-41e6-83a2-af77f2b3c60f">Patricia JORDANA  Female, DoB: 1956-09-30 ( https://standards.digital.health.nz/ns/nhi-id#ABC1234)</a></p><p><b>occurrence</b>: 2024-02-18</p><p><b>lotNumber</b>: GK3908-068</p><p><b>route</b>: <span title="Codes:{http://terminology.hl7.org/CodeSystem/v3-RouteOfAdministration IM}">Injection, intramuscular</span></p><h3>Performers</h3><table class="grid"><tr><td style="display: none">-</td><td><b>Actor</b></td></tr><tr><td style="display: none">*</td><td><a href="Bundle-bundle-ips-all-sections.html#Organization_7a17027f-acc0-4d77-bf84-c0dad8f7c881">Organization NorthCare Pukete Road-Thomas Road</a></td></tr></table><h3>ProtocolApplieds</h3><table class="grid"><tr><td style="display: none">-</td><td><b>Series</b></td><td><b>DoseNumber[x]</b></td></tr><tr><td style="display: none">*</td><td>6 (Booster or Extra dose)</td><td>5</td></tr></table></div>
        </text>
        <status value="completed"/>
        <vaccineCode>
          <coding>
            <system value="http://hl7.org/fhir/sid/cvx"/>
            <code value="300"/>
            <display value="COVID-19, mRNA, LNP-S, bivalent, PF, 30 mcg/0.3 mL dose"/>
          </coding>
        </vaccineCode>
        <patient>
          <reference value="Patient/d174bd1a-b368-41e6-83a2-af77f2b3c60f"/>
        </patient>
        <occurrenceDateTime value="2024-02-18"/>
        <lotNumber value="GK3908-068"/>
        <route>
          <coding>
            <system value="http://terminology.hl7.org/CodeSystem/v3-RouteOfAdministration"/>
            <code value="IM"/>
            <display value="Injection, intramuscular"/>
          </coding>
        </route>
        <performer>
          <actor>
            <reference value="Organization/7a17027f-acc0-4d77-bf84-c0dad8f7c881"/>
          </actor>
        </performer>
        <protocolApplied>
          <series value="6 (Booster or Extra dose)"/>
          <doseNumberPositiveInt value="5"/>
        </protocolApplied>
      </Immunization>
    </resource>
  </entry>
  <entry>
    <fullUrl value="https://fhir.example.com/Immunization/47befa30-026c-421a-ad32-c0b134597a30"/>
    <resource>
      <Immunization>
        <id value="47befa30-026c-421a-ad32-c0b134597a30"/>
        <text>
          <status value="generated"/><div xmlns="http://www.w3.org/1999/xhtml"><a name="Immunization_47befa30-026c-421a-ad32-c0b134597a30"> </a><p class="res-header-id"><b>Generated Narrative: Immunization 47befa30-026c-421a-ad32-c0b134597a30</b></p><a name="47befa30-026c-421a-ad32-c0b134597a30"> </a><a name="hc47befa30-026c-421a-ad32-c0b134597a30"> </a><p><b>status</b>: Completed</p><p><b>vaccineCode</b>: <span title="Codes:{http://hl7.org/fhir/sid/cvx 141}">Influenza, split virus, trivalent, preservative</span></p><p><b>patient</b>: <a href="Bundle-bundle-ips-all-sections.html#Patient_d174bd1a-b368-41e6-83a2-af77f2b3c60f">Patricia JORDANA  Female, DoB: 1956-09-30 ( https://standards.digital.health.nz/ns/nhi-id#ABC1234)</a></p><p><b>occurrence</b>: 2023-04-12</p><p><b>lotNumber</b>: 358899</p><p><b>site</b>: <span title="Codes:{http://snomed.info/sct 16217661000119109}">Structure of right deltoid muscle</span></p><p><b>route</b>: <span title="Codes:{http://terminology.hl7.org/CodeSystem/v3-RouteOfAdministration IM}">Injection, intramuscular</span></p><h3>Performers</h3><table class="grid"><tr><td style="display: none">-</td><td><b>Actor</b></td></tr><tr><td style="display: none">*</td><td><a href="Bundle-bundle-ips-all-sections.html#Organization_7a17027f-acc0-4d77-bf84-c0dad8f7c881">Organization NorthCare Pukete Road-Thomas Road</a></td></tr></table><h3>ProtocolApplieds</h3><table class="grid"><tr><td style="display: none">-</td><td><b>Series</b></td><td><b>DoseNumber[x]</b></td></tr><tr><td style="display: none">*</td><td>1 (Over 65 years (Influenza))</td><td>1</td></tr></table></div>
        </text>
        <status value="completed"/>
        <vaccineCode>
          <coding>
            <system value="http://hl7.org/fhir/sid/cvx"/>
            <code value="141"/>
            <display value="Influenza, split virus, trivalent, preservative"/>
          </coding>
        </vaccineCode>
        <patient>
          <reference value="Patient/d174bd1a-b368-41e6-83a2-af77f2b3c60f"/>
        </patient>
        <occurrenceDateTime value="2023-04-12"/>
        <lotNumber value="358899"/>
        <site>
          <coding>
            <system value="http://snomed.info/sct"/>
            <code value="16217661000119109"/>
            <display value="Structure of right deltoid muscle"/>
          </coding>
        </site>
        <route>
          <coding>
            <system value="http://terminology.hl7.org/CodeSystem/v3-RouteOfAdministration"/>
            <code value="IM"/>
            <display value="Injection, intramuscular"/>
          </coding>
        </route>
        <performer>
          <actor>
            <reference value="Organization/7a17027f-acc0-4d77-bf84-c0dad8f7c881"/>
          </actor>
        </performer>
        <protocolApplied>
          <series value="1 (Over 65 years (Influenza))"/>
          <doseNumberPositiveInt value="1"/>
        </protocolApplied>
      </Immunization>
    </resource>
  </entry>
  <entry>
    <fullUrl value="https://fhir.example.com/Immunization/2f05b590-ce75-4ac6-be97-c2a275e21cbc"/>
    <resource>
      <Immunization>
        <id value="2f05b590-ce75-4ac6-be97-c2a275e21cbc"/>
        <text>
          <status value="generated"/><div xmlns="http://www.w3.org/1999/xhtml"><a name="Immunization_2f05b590-ce75-4ac6-be97-c2a275e21cbc"> </a><p class="res-header-id"><b>Generated Narrative: Immunization 2f05b590-ce75-4ac6-be97-c2a275e21cbc</b></p><a name="2f05b590-ce75-4ac6-be97-c2a275e21cbc"> </a><a name="hc2f05b590-ce75-4ac6-be97-c2a275e21cbc"> </a><p><b>status</b>: Completed</p><p><b>vaccineCode</b>: <span title="Codes:{http://hl7.org/fhir/sid/cvx 208}">COVID-19, mRNA, LNP-S, PF, 30 mcg/0.3 mL dose</span></p><p><b>patient</b>: <a href="Bundle-bundle-ips-all-sections.html#Patient_d174bd1a-b368-41e6-83a2-af77f2b3c60f">Patricia JORDANA  Female, DoB: 1956-09-30 ( https://standards.digital.health.nz/ns/nhi-id#ABC1234)</a></p><p><b>occurrence</b>: 2022-08-01</p><p><b>lotNumber</b>: PCB0008-07</p><p><b>site</b>: <span title="Codes:{http://snomed.info/sct 16217701000119102}">Structure of left deltoid muscle</span></p><p><b>route</b>: <span title="Codes:{http://terminology.hl7.org/CodeSystem/v3-RouteOfAdministration IM}">Injection, intramuscular</span></p><h3>Performers</h3><table class="grid"><tr><td style="display: none">-</td><td><b>Actor</b></td></tr><tr><td style="display: none">*</td><td><a href="Bundle-bundle-ips-all-sections.html#Organization_7a17027f-acc0-4d77-bf84-c0dad8f7c881">Organization NorthCare Pukete Road-Thomas Road</a></td></tr></table><h3>ProtocolApplieds</h3><table class="grid"><tr><td style="display: none">-</td><td><b>Series</b></td><td><b>DoseNumber[x]</b></td></tr><tr><td style="display: none">*</td><td>12 (At risk, no previous history)</td><td>4</td></tr></table></div>
        </text>
        <status value="completed"/>
        <vaccineCode>
          <coding>
            <system value="http://hl7.org/fhir/sid/cvx"/>
            <code value="208"/>
            <display value="COVID-19, mRNA, LNP-S, PF, 30 mcg/0.3 mL dose"/>
          </coding>
        </vaccineCode>
        <patient>
          <reference value="Patient/d174bd1a-b368-41e6-83a2-af77f2b3c60f"/>
        </patient>
        <occurrenceDateTime value="2022-08-01"/>
        <lotNumber value="PCB0008-07"/>
        <site>
          <coding>
            <system value="http://snomed.info/sct"/>
            <code value="16217701000119102"/>
            <display value="Structure of left deltoid muscle"/>
          </coding>
        </site>
        <route>
          <coding>
            <system value="http://terminology.hl7.org/CodeSystem/v3-RouteOfAdministration"/>
            <code value="IM"/>
            <display value="Injection, intramuscular"/>
          </coding>
        </route>
        <performer>
          <actor>
            <reference value="Organization/7a17027f-acc0-4d77-bf84-c0dad8f7c881"/>
          </actor>
        </performer>
        <protocolApplied>
          <series value="12 (At risk, no previous history)"/>
          <doseNumberPositiveInt value="4"/>
        </protocolApplied>
      </Immunization>
    </resource>
  </entry>
  <entry>
    <fullUrl value="https://fhir.example.com/Immunization/c1d3ccb9-8b7d-4732-8e03-abe63be1984c"/>
    <resource>
      <Immunization>
        <id value="c1d3ccb9-8b7d-4732-8e03-abe63be1984c"/>
        <text>
          <status value="generated"/><div xmlns="http://www.w3.org/1999/xhtml"><a name="Immunization_c1d3ccb9-8b7d-4732-8e03-abe63be1984c"> </a><p class="res-header-id"><b>Generated Narrative: Immunization c1d3ccb9-8b7d-4732-8e03-abe63be1984c</b></p><a name="c1d3ccb9-8b7d-4732-8e03-abe63be1984c"> </a><a name="hcc1d3ccb9-8b7d-4732-8e03-abe63be1984c"> </a><p><b>status</b>: Completed</p><p><b>vaccineCode</b>: <span title="Codes:{http://hl7.org/fhir/sid/cvx 121}">zoster live</span></p><p><b>patient</b>: <a href="Bundle-bundle-ips-all-sections.html#Patient_d174bd1a-b368-41e6-83a2-af77f2b3c60f">Patricia JORDANA  Female, DoB: 1956-09-30 ( https://standards.digital.health.nz/ns/nhi-id#ABC1234)</a></p><p><b>occurrence</b>: 2022-07-13</p><p><b>lotNumber</b>: U021248</p><p><b>site</b>: <span title="Codes:{http://snomed.info/sct 72098002}">Entire left upper arm</span></p><p><b>route</b>: <span title="Codes:{http://terminology.hl7.org/CodeSystem/v3-RouteOfAdministration IM}">Injection, intramuscular</span></p><h3>Performers</h3><table class="grid"><tr><td style="display: none">-</td><td><b>Actor</b></td></tr><tr><td style="display: none">*</td><td><a href="Bundle-bundle-ips-all-sections.html#Organization_7a17027f-acc0-4d77-bf84-c0dad8f7c881">Organization NorthCare Pukete Road-Thomas Road</a></td></tr></table><h3>ProtocolApplieds</h3><table class="grid"><tr><td style="display: none">-</td><td><b>Series</b></td><td><b>DoseNumber[x]</b></td></tr><tr><td style="display: none">*</td><td>65Y (65 years)</td><td>1</td></tr></table></div>
        </text>
        <status value="completed"/>
        <vaccineCode>
          <coding>
            <system value="http://hl7.org/fhir/sid/cvx"/>
            <code value="121"/>
            <display value="zoster live"/>
          </coding>
        </vaccineCode>
        <patient>
          <reference value="Patient/d174bd1a-b368-41e6-83a2-af77f2b3c60f"/>
        </patient>
        <occurrenceDateTime value="2022-07-13"/>
        <lotNumber value="U021248"/>
        <site>
          <coding>
            <system value="http://snomed.info/sct"/>
            <code value="72098002"/>
            <display value="Entire left upper arm"/>
          </coding>
        </site>
        <route>
          <coding>
            <system value="http://terminology.hl7.org/CodeSystem/v3-RouteOfAdministration"/>
            <code value="IM"/>
            <display value="Injection, intramuscular"/>
          </coding>
        </route>
        <performer>
          <actor>
            <reference value="Organization/7a17027f-acc0-4d77-bf84-c0dad8f7c881"/>
          </actor>
        </performer>
        <protocolApplied>
          <series value="65Y (65 years)"/>
          <doseNumberPositiveInt value="1"/>
        </protocolApplied>
      </Immunization>
    </resource>
  </entry>
  <entry>
    <fullUrl value="https://fhir.example.com/Immunization/79b66c21-fbd3-4c7f-ae82-ac958ae62e0a"/>
    <resource>
      <Immunization>
        <id value="79b66c21-fbd3-4c7f-ae82-ac958ae62e0a"/>
        <text>
          <status value="generated"/><div xmlns="http://www.w3.org/1999/xhtml"><a name="Immunization_79b66c21-fbd3-4c7f-ae82-ac958ae62e0a"> </a><p class="res-header-id"><b>Generated Narrative: Immunization 79b66c21-fbd3-4c7f-ae82-ac958ae62e0a</b></p><a name="79b66c21-fbd3-4c7f-ae82-ac958ae62e0a"> </a><a name="hc79b66c21-fbd3-4c7f-ae82-ac958ae62e0a"> </a><p><b>status</b>: Completed</p><p><b>vaccineCode</b>: <span title="Codes:{http://hl7.org/fhir/sid/cvx 208}">COVID-19, mRNA, LNP-S, PF, 30 mcg/0.3 mL dose</span></p><p><b>patient</b>: <a href="Bundle-bundle-ips-all-sections.html#Patient_d174bd1a-b368-41e6-83a2-af77f2b3c60f">Patricia JORDANA  Female, DoB: 1956-09-30 ( https://standards.digital.health.nz/ns/nhi-id#ABC1234)</a></p><p><b>occurrence</b>: 2022-01-13</p><p><b>lotNumber</b>: FL1072-025</p><p><b>route</b>: <span title="Codes:{http://terminology.hl7.org/CodeSystem/v3-RouteOfAdministration IM}">Injection, intramuscular</span></p><h3>Performers</h3><table class="grid"><tr><td style="display: none">-</td><td><b>Actor</b></td></tr><tr><td style="display: none">*</td><td><a href="Bundle-bundle-ips-all-sections.html#Organization_7a17027f-acc0-4d77-bf84-c0dad8f7c881">Organization NorthCare Pukete Road-Thomas Road</a></td></tr></table><h3>ProtocolApplieds</h3><table class="grid"><tr><td style="display: none">-</td><td><b>Series</b></td><td><b>DoseNumber[x]</b></td></tr><tr><td style="display: none">*</td><td>12 (At risk, no previous history)</td><td>3</td></tr></table></div>
        </text>
        <status value="completed"/>
        <vaccineCode>
          <coding>
            <system value="http://hl7.org/fhir/sid/cvx"/>
            <code value="208"/>
            <display value="COVID-19, mRNA, LNP-S, PF, 30 mcg/0.3 mL dose"/>
          </coding>
        </vaccineCode>
        <patient>
          <reference value="Patient/d174bd1a-b368-41e6-83a2-af77f2b3c60f"/>
        </patient>
        <occurrenceDateTime value="2022-01-13"/>
        <lotNumber value="FL1072-025"/>
        <route>
          <coding>
            <system value="http://terminology.hl7.org/CodeSystem/v3-RouteOfAdministration"/>
            <code value="IM"/>
            <display value="Injection, intramuscular"/>
          </coding>
        </route>
        <performer>
          <actor>
            <reference value="Organization/7a17027f-acc0-4d77-bf84-c0dad8f7c881"/>
          </actor>
        </performer>
        <protocolApplied>
          <series value="12 (At risk, no previous history)"/>
          <doseNumberPositiveInt value="3"/>
        </protocolApplied>
      </Immunization>
    </resource>
  </entry>
  <entry>
    <fullUrl value="https://fhir.example.com/Immunization/9910b96a-793b-4e96-91a9-291c27357f83"/>
    <resource>
      <Immunization>
        <id value="9910b96a-793b-4e96-91a9-291c27357f83"/>
        <text>
          <status value="generated"/><div xmlns="http://www.w3.org/1999/xhtml"><a name="Immunization_9910b96a-793b-4e96-91a9-291c27357f83"> </a><p class="res-header-id"><b>Generated Narrative: Immunization 9910b96a-793b-4e96-91a9-291c27357f83</b></p><a name="9910b96a-793b-4e96-91a9-291c27357f83"> </a><a name="hc9910b96a-793b-4e96-91a9-291c27357f83"> </a><p><b>status</b>: Completed</p><p><b>vaccineCode</b>: <span title="Codes:{http://hl7.org/fhir/sid/cvx 208}">COVID-19, mRNA, LNP-S, PF, 30 mcg/0.3 mL dose</span></p><p><b>patient</b>: <a href="Bundle-bundle-ips-all-sections.html#Patient_d174bd1a-b368-41e6-83a2-af77f2b3c60f">Patricia JORDANA  Female, DoB: 1956-09-30 ( https://standards.digital.health.nz/ns/nhi-id#ABC1234)</a></p><p><b>occurrence</b>: 2021-08-27</p><p><b>lotNumber</b>: FE8163-007</p><p><b>site</b>: <span title="Codes:{http://snomed.info/sct 16217701000119102}">Structure of left deltoid muscle</span></p><p><b>route</b>: <span title="Codes:{http://terminology.hl7.org/CodeSystem/v3-RouteOfAdministration IM}">Injection, intramuscular</span></p><h3>Performers</h3><table class="grid"><tr><td style="display: none">-</td><td><b>Actor</b></td></tr><tr><td style="display: none">*</td><td><a href="Bundle-bundle-ips-all-sections.html#Organization_7a17027f-acc0-4d77-bf84-c0dad8f7c881">Organization NorthCare Pukete Road-Thomas Road</a></td></tr></table><h3>ProtocolApplieds</h3><table class="grid"><tr><td style="display: none">-</td><td><b>Series</b></td><td><b>DoseNumber[x]</b></td></tr><tr><td style="display: none">*</td><td>12 (At risk, no previous history)</td><td>2</td></tr></table></div>
        </text>
        <status value="completed"/>
        <vaccineCode>
          <coding>
            <system value="http://hl7.org/fhir/sid/cvx"/>
            <code value="208"/>
            <display value="COVID-19, mRNA, LNP-S, PF, 30 mcg/0.3 mL dose"/>
          </coding>
        </vaccineCode>
        <patient>
          <reference value="Patient/d174bd1a-b368-41e6-83a2-af77f2b3c60f"/>
        </patient>
        <occurrenceDateTime value="2021-08-27"/>
        <lotNumber value="FE8163-007"/>
        <site>
          <coding>
            <system value="http://snomed.info/sct"/>
            <code value="16217701000119102"/>
            <display value="Structure of left deltoid muscle"/>
          </coding>
        </site>
        <route>
          <coding>
            <system value="http://terminology.hl7.org/CodeSystem/v3-RouteOfAdministration"/>
            <code value="IM"/>
            <display value="Injection, intramuscular"/>
          </coding>
        </route>
        <performer>
          <actor>
            <reference value="Organization/7a17027f-acc0-4d77-bf84-c0dad8f7c881"/>
          </actor>
        </performer>
        <protocolApplied>
          <series value="12 (At risk, no previous history)"/>
          <doseNumberPositiveInt value="2"/>
        </protocolApplied>
      </Immunization>
    </resource>
  </entry>
  <entry>
    <fullUrl value="https://fhir.example.com/Immunization/5b028fb0-bd04-4e75-b2bc-6952771173ea"/>
    <resource>
      <Immunization>
        <id value="5b028fb0-bd04-4e75-b2bc-6952771173ea"/>
        <text>
          <status value="generated"/><div xmlns="http://www.w3.org/1999/xhtml"><a name="Immunization_5b028fb0-bd04-4e75-b2bc-6952771173ea"> </a><p class="res-header-id"><b>Generated Narrative: Immunization 5b028fb0-bd04-4e75-b2bc-6952771173ea</b></p><a name="5b028fb0-bd04-4e75-b2bc-6952771173ea"> </a><a name="hc5b028fb0-bd04-4e75-b2bc-6952771173ea"> </a><p><b>status</b>: Completed</p><p><b>vaccineCode</b>: <span title="Codes:{http://hl7.org/fhir/sid/cvx 208}">COVID-19, mRNA, LNP-S, PF, 30 mcg/0.3 mL dose</span></p><p><b>patient</b>: <a href="Bundle-bundle-ips-all-sections.html#Patient_d174bd1a-b368-41e6-83a2-af77f2b3c60f">Patricia JORDANA  Female, DoB: 1956-09-30 ( https://standards.digital.health.nz/ns/nhi-id#ABC1234)</a></p><p><b>occurrence</b>: 2021-08-05</p><p><b>lotNumber</b>: FF8871-001</p><p><b>site</b>: <span title="Codes:{http://snomed.info/sct 16217701000119102}">Structure of left deltoid muscle</span></p><p><b>route</b>: <span title="Codes:{http://terminology.hl7.org/CodeSystem/v3-RouteOfAdministration IM}">Injection, intramuscular</span></p><h3>Performers</h3><table class="grid"><tr><td style="display: none">-</td><td><b>Actor</b></td></tr><tr><td style="display: none">*</td><td><a href="Bundle-bundle-ips-all-sections.html#Organization_7a17027f-acc0-4d77-bf84-c0dad8f7c881">Organization NorthCare Pukete Road-Thomas Road</a></td></tr></table><h3>ProtocolApplieds</h3><table class="grid"><tr><td style="display: none">-</td><td><b>Series</b></td><td><b>DoseNumber[x]</b></td></tr><tr><td style="display: none">*</td><td>12 (At risk, no previous history)</td><td>1</td></tr></table></div>
        </text>
        <status value="completed"/>
        <vaccineCode>
          <coding>
            <system value="http://hl7.org/fhir/sid/cvx"/>
            <code value="208"/>
            <display value="COVID-19, mRNA, LNP-S, PF, 30 mcg/0.3 mL dose"/>
          </coding>
        </vaccineCode>
        <patient>
          <reference value="Patient/d174bd1a-b368-41e6-83a2-af77f2b3c60f"/>
        </patient>
        <occurrenceDateTime value="2021-08-05"/>
        <lotNumber value="FF8871-001"/>
        <site>
          <coding>
            <system value="http://snomed.info/sct"/>
            <code value="16217701000119102"/>
            <display value="Structure of left deltoid muscle"/>
          </coding>
        </site>
        <route>
          <coding>
            <system value="http://terminology.hl7.org/CodeSystem/v3-RouteOfAdministration"/>
            <code value="IM"/>
            <display value="Injection, intramuscular"/>
          </coding>
        </route>
        <performer>
          <actor>
            <reference value="Organization/7a17027f-acc0-4d77-bf84-c0dad8f7c881"/>
          </actor>
        </performer>
        <protocolApplied>
          <series value="12 (At risk, no previous history)"/>
          <doseNumberPositiveInt value="1"/>
        </protocolApplied>
      </Immunization>
    </resource>
  </entry>
  <entry>
    <fullUrl value="https://fhir.example.com/Observation/b0187efd-5f9b-474d-87bc-efebf877449a"/>
    <resource>
      <Observation>
        <id value="b0187efd-5f9b-474d-87bc-efebf877449a"/>
        <text>
          <status value="generated"/><div xmlns="http://www.w3.org/1999/xhtml"><a name="Observation_b0187efd-5f9b-474d-87bc-efebf877449a"> </a><p class="res-header-id"><b>Generated Narrative: Observation b0187efd-5f9b-474d-87bc-efebf877449a</b></p><a name="b0187efd-5f9b-474d-87bc-efebf877449a"> </a><a name="hcb0187efd-5f9b-474d-87bc-efebf877449a"> </a><p><b>status</b>: Final</p><p><b>category</b>: <span title="Codes:{http://terminology.hl7.org/CodeSystem/observation-category laboratory}">Laboratory</span></p><p><b>code</b>: <span title="Codes:{http://loinc.org 32309-7}">Cholesterol.total/Cholesterol in HDL [Molar ratio] in Serum or Plasma</span></p><p><b>subject</b>: <a href="Bundle-bundle-ips-all-sections.html#Patient_d174bd1a-b368-41e6-83a2-af77f2b3c60f">Patricia JORDANA  Female, DoB: 1956-09-30 ( https://standards.digital.health.nz/ns/nhi-id#ABC1234)</a></p><p><b>effective</b>: 2023-10-31 15:06:00+0000</p><p><b>performer</b>: <a href="Bundle-bundle-ips-all-sections.html#PractitionerRole_75ed6f24-9a7e-4568-9c05-91b6d4786743">PractitionerRole Clinical pathologist</a></p><p><b>value</b>: 4.1 mmol/L<span style="background: LightGoldenRodYellow"> (Details: UCUM  codemmol/L = 'mmol/L')</span></p><p><b>note</b>: </p><blockquote><div><p>Incr chol 5.7, LDL 3.6, HDL 1.39</p>
</div></blockquote><h3>ReferenceRanges</h3><table class="grid"><tr><td style="display: none">-</td><td><b>Text</b></td></tr><tr><td style="display: none">*</td><td>NA</td></tr></table></div>
        </text>
        <status value="final"/>
        <category>
          <coding>
            <system value="http://terminology.hl7.org/CodeSystem/observation-category"/>
            <code value="laboratory"/>
          </coding>
        </category>
        <code>
          <coding>
            <system value="http://loinc.org"/>
            <code value="32309-7"/>
            <display value="Cholesterol.total/Cholesterol in HDL [Molar ratio] in Serum or Plasma"/>
          </coding>
        </code>
        <subject>
          <reference value="Patient/d174bd1a-b368-41e6-83a2-af77f2b3c60f"/>
        </subject>
        <effectiveDateTime value="2023-10-31T15:06:00+00:00"/>
        <performer>
          <reference value="PractitionerRole/75ed6f24-9a7e-4568-9c05-91b6d4786743"/>
        </performer>
        <valueQuantity>
          <value value="4.1"/>
          <unit value="mmol/L"/>
          <system value="http://unitsofmeasure.org"/>
          <code value="mmol/L"/>
        </valueQuantity>
        <note>
          <text value="Incr chol 5.7, LDL 3.6, HDL 1.39"/>
        </note>
        <referenceRange>
          <text value="NA"/>
        </referenceRange>
      </Observation>
    </resource>
  </entry>
  <entry>
    <fullUrl value="https://fhir.example.com/Observation/f40b9e26-93b4-462b-8811-bdd6943873aa"/>
    <resource>
      <Observation>
        <id value="f40b9e26-93b4-462b-8811-bdd6943873aa"/>
        <text>
          <status value="generated"/><div xmlns="http://www.w3.org/1999/xhtml"><a name="Observation_f40b9e26-93b4-462b-8811-bdd6943873aa"> </a><p class="res-header-id"><b>Generated Narrative: Observation f40b9e26-93b4-462b-8811-bdd6943873aa</b></p><a name="f40b9e26-93b4-462b-8811-bdd6943873aa"> </a><a name="hcf40b9e26-93b4-462b-8811-bdd6943873aa"> </a><p><b>status</b>: Final</p><p><b>category</b>: <span title="Codes:{http://terminology.hl7.org/CodeSystem/observation-category laboratory}">Laboratory</span></p><p><b>code</b>: <span title="Codes:{http://loinc.org 49062-3}">Lipid risk factors [Finding]</span></p><p><b>subject</b>: <a href="Bundle-bundle-ips-all-sections.html#Patient_d174bd1a-b368-41e6-83a2-af77f2b3c60f">Patricia JORDANA  Female, DoB: 1956-09-30 ( https://standards.digital.health.nz/ns/nhi-id#ABC1234)</a></p><p><b>effective</b>: 2023-10-31 15:06:00+0000</p><p><b>performer</b>: <a href="Bundle-bundle-ips-all-sections.html#PractitionerRole_75ed6f24-9a7e-4568-9c05-91b6d4786743">PractitionerRole Clinical pathologist</a></p><p><b>value</b>: A combined CVD risk of which lipids is one component should be estimated to guide CVD risk management decisions. If lipid modifying medication is considered suggest checking first for treatable secondary causes of dyslipidaemia.</p><p><b>note</b>: </p><blockquote><div><p>Incr chol 5.7, LDL 3.6, HDL 1.39</p>
</div></blockquote><h3>ReferenceRanges</h3><table class="grid"><tr><td style="display: none">-</td><td><b>Text</b></td></tr><tr><td style="display: none">*</td><td>NA</td></tr></table></div>
        </text>
        <status value="final"/>
        <category>
          <coding>
            <system value="http://terminology.hl7.org/CodeSystem/observation-category"/>
            <code value="laboratory"/>
          </coding>
        </category>
        <code>
          <coding>
            <system value="http://loinc.org"/>
            <code value="49062-3"/>
            <display value="Lipid risk factors [Finding]"/>
          </coding>
        </code>
        <subject>
          <reference value="Patient/d174bd1a-b368-41e6-83a2-af77f2b3c60f"/>
        </subject>
        <effectiveDateTime value="2023-10-31T15:06:00+00:00"/>
        <performer>
          <reference value="PractitionerRole/75ed6f24-9a7e-4568-9c05-91b6d4786743"/>
        </performer>
        <valueString value="A combined CVD risk of which lipids is one component should be estimated to guide CVD risk management decisions. If lipid modifying medication is considered suggest checking first for treatable secondary causes of dyslipidaemia."/>
        <note>
          <text value="Incr chol 5.7, LDL 3.6, HDL 1.39"/>
        </note>
        <referenceRange>
          <text value="NA"/>
        </referenceRange>
      </Observation>
    </resource>
  </entry>
  <entry>
    <fullUrl value="https://fhir.example.com/Observation/612b7e6a-c902-45cb-b45c-d1894458a26b"/>
    <resource>
      <Observation>
        <id value="612b7e6a-c902-45cb-b45c-d1894458a26b"/>
        <text>
          <status value="generated"/><div xmlns="http://www.w3.org/1999/xhtml"><a name="Observation_612b7e6a-c902-45cb-b45c-d1894458a26b"> </a><p class="res-header-id"><b>Generated Narrative: Observation 612b7e6a-c902-45cb-b45c-d1894458a26b</b></p><a name="612b7e6a-c902-45cb-b45c-d1894458a26b"> </a><a name="hc612b7e6a-c902-45cb-b45c-d1894458a26b"> </a><p><b>status</b>: Final</p><p><b>category</b>: <span title="Codes:{http://terminology.hl7.org/CodeSystem/observation-category laboratory}">Laboratory</span></p><p><b>code</b>: <span title="Codes:{http://loinc.org 39469-2}">Cholesterol in LDL [Moles/volume] in Serum or Plasma by calculation</span></p><p><b>subject</b>: <a href="Bundle-bundle-ips-all-sections.html#Patient_d174bd1a-b368-41e6-83a2-af77f2b3c60f">Patricia JORDANA  Female, DoB: 1956-09-30 ( https://standards.digital.health.nz/ns/nhi-id#ABC1234)</a></p><p><b>effective</b>: 2023-10-31 15:06:00+0000</p><p><b>performer</b>: <a href="Bundle-bundle-ips-all-sections.html#PractitionerRole_75ed6f24-9a7e-4568-9c05-91b6d4786743">PractitionerRole Clinical pathologist</a></p><p><b>value</b>: 3.6 mmol/L<span style="background: LightGoldenRodYellow"> (Details: UCUM  codemmol/L = 'mmol/L')</span></p><p><b>note</b>: </p><blockquote><div><p>Incr chol 5.7, LDL 3.6, HDL 1.39</p>
</div></blockquote><h3>ReferenceRanges</h3><table class="grid"><tr><td style="display: none">-</td><td><b>Text</b></td></tr><tr><td style="display: none">*</td><td>NA</td></tr></table></div>
        </text>
        <status value="final"/>
        <category>
          <coding>
            <system value="http://terminology.hl7.org/CodeSystem/observation-category"/>
            <code value="laboratory"/>
          </coding>
        </category>
        <code>
          <coding>
            <system value="http://loinc.org"/>
            <code value="39469-2"/>
            <display value="Cholesterol in LDL [Moles/volume] in Serum or Plasma by calculation"/>
          </coding>
        </code>
        <subject>
          <reference value="Patient/d174bd1a-b368-41e6-83a2-af77f2b3c60f"/>
        </subject>
        <effectiveDateTime value="2023-10-31T15:06:00+00:00"/>
        <performer>
          <reference value="PractitionerRole/75ed6f24-9a7e-4568-9c05-91b6d4786743"/>
        </performer>
        <valueQuantity>
          <value value="3.6"/>
          <unit value="mmol/L"/>
          <system value="http://unitsofmeasure.org"/>
          <code value="mmol/L"/>
        </valueQuantity>
        <note>
          <text value="Incr chol 5.7, LDL 3.6, HDL 1.39"/>
        </note>
        <referenceRange>
          <text value="NA"/>
        </referenceRange>
      </Observation>
    </resource>
  </entry>
  <entry>
    <fullUrl value="https://fhir.example.com/Observation/15bd8c0c-fa53-4f5b-994b-487c7db3dc78"/>
    <resource>
      <Observation>
        <id value="15bd8c0c-fa53-4f5b-994b-487c7db3dc78"/>
        <text>
          <status value="generated"/><div xmlns="http://www.w3.org/1999/xhtml"><a name="Observation_15bd8c0c-fa53-4f5b-994b-487c7db3dc78"> </a><p class="res-header-id"><b>Generated Narrative: Observation 15bd8c0c-fa53-4f5b-994b-487c7db3dc78</b></p><a name="15bd8c0c-fa53-4f5b-994b-487c7db3dc78"> </a><a name="hc15bd8c0c-fa53-4f5b-994b-487c7db3dc78"> </a><p><b>status</b>: Final</p><p><b>category</b>: <span title="Codes:{http://terminology.hl7.org/CodeSystem/observation-category laboratory}">Laboratory</span></p><p><b>code</b>: <span title="Codes:{http://loinc.org 14927-8}">Triglyceride [Moles/volume] in Serum or Plasma</span></p><p><b>subject</b>: <a href="Bundle-bundle-ips-all-sections.html#Patient_d174bd1a-b368-41e6-83a2-af77f2b3c60f">Patricia JORDANA  Female, DoB: 1956-09-30 ( https://standards.digital.health.nz/ns/nhi-id#ABC1234)</a></p><p><b>effective</b>: 2023-10-31 15:06:00+0000</p><p><b>performer</b>: <a href="Bundle-bundle-ips-all-sections.html#PractitionerRole_75ed6f24-9a7e-4568-9c05-91b6d4786743">PractitionerRole Clinical pathologist</a></p><p><b>value</b>: 1.7 mmol/L<span style="background: LightGoldenRodYellow"> (Details: UCUM  codemmol/L = 'mmol/L')</span></p><p><b>note</b>: </p><blockquote><div><p>Incr chol 5.7, LDL 3.6, HDL 1.39</p>
</div></blockquote><h3>ReferenceRanges</h3><table class="grid"><tr><td style="display: none">-</td><td><b>Text</b></td></tr><tr><td style="display: none">*</td><td>NA</td></tr></table></div>
        </text>
        <status value="final"/>
        <category>
          <coding>
            <system value="http://terminology.hl7.org/CodeSystem/observation-category"/>
            <code value="laboratory"/>
          </coding>
        </category>
        <code>
          <coding>
            <system value="http://loinc.org"/>
            <code value="14927-8"/>
            <display value="Triglyceride [Moles/volume] in Serum or Plasma"/>
          </coding>
        </code>
        <subject>
          <reference value="Patient/d174bd1a-b368-41e6-83a2-af77f2b3c60f"/>
        </subject>
        <effectiveDateTime value="2023-10-31T15:06:00+00:00"/>
        <performer>
          <reference value="PractitionerRole/75ed6f24-9a7e-4568-9c05-91b6d4786743"/>
        </performer>
        <valueQuantity>
          <value value="1.7"/>
          <unit value="mmol/L"/>
          <system value="http://unitsofmeasure.org"/>
          <code value="mmol/L"/>
        </valueQuantity>
        <note>
          <text value="Incr chol 5.7, LDL 3.6, HDL 1.39"/>
        </note>
        <referenceRange>
          <text value="NA"/>
        </referenceRange>
      </Observation>
    </resource>
  </entry>
  <entry>
    <fullUrl value="https://fhir.example.com/Observation/5019909f-097d-4a43-84d9-cc50143b8c82"/>
    <resource>
      <Observation>
        <id value="5019909f-097d-4a43-84d9-cc50143b8c82"/>
        <text>
          <status value="generated"/><div xmlns="http://www.w3.org/1999/xhtml"><a name="Observation_5019909f-097d-4a43-84d9-cc50143b8c82"> </a><p class="res-header-id"><b>Generated Narrative: Observation 5019909f-097d-4a43-84d9-cc50143b8c82</b></p><a name="5019909f-097d-4a43-84d9-cc50143b8c82"> </a><a name="hc5019909f-097d-4a43-84d9-cc50143b8c82"> </a><p><b>status</b>: Final</p><p><b>category</b>: <span title="Codes:{http://terminology.hl7.org/CodeSystem/observation-category laboratory}">Laboratory</span></p><p><b>code</b>: <span title="Codes:{http://loinc.org 14647-2}">Cholesterol [Moles/volume] in Serum or Plasma</span></p><p><b>subject</b>: <a href="Bundle-bundle-ips-all-sections.html#Patient_d174bd1a-b368-41e6-83a2-af77f2b3c60f">Patricia JORDANA  Female, DoB: 1956-09-30 ( https://standards.digital.health.nz/ns/nhi-id#ABC1234)</a></p><p><b>effective</b>: 2023-10-31 15:06:00+0000</p><p><b>performer</b>: <a href="Bundle-bundle-ips-all-sections.html#PractitionerRole_75ed6f24-9a7e-4568-9c05-91b6d4786743">PractitionerRole Clinical pathologist</a></p><p><b>value</b>: 5.7 mmol/L<span style="background: LightGoldenRodYellow"> (Details: UCUM  codemmol/L = 'mmol/L')</span></p><p><b>note</b>: </p><blockquote><div><p>Incr chol 5.7, LDL 3.6, HDL 1.39</p>
</div></blockquote><h3>ReferenceRanges</h3><table class="grid"><tr><td style="display: none">-</td><td><b>Text</b></td></tr><tr><td style="display: none">*</td><td>NA</td></tr></table></div>
        </text>
        <status value="final"/>
        <category>
          <coding>
            <system value="http://terminology.hl7.org/CodeSystem/observation-category"/>
            <code value="laboratory"/>
          </coding>
        </category>
        <code>
          <coding>
            <system value="http://loinc.org"/>
            <code value="14647-2"/>
            <display value="Cholesterol [Moles/volume] in Serum or Plasma"/>
          </coding>
        </code>
        <subject>
          <reference value="Patient/d174bd1a-b368-41e6-83a2-af77f2b3c60f"/>
        </subject>
        <effectiveDateTime value="2023-10-31T15:06:00+00:00"/>
        <performer>
          <reference value="PractitionerRole/75ed6f24-9a7e-4568-9c05-91b6d4786743"/>
        </performer>
        <valueQuantity>
          <value value="5.7"/>
          <unit value="mmol/L"/>
          <system value="http://unitsofmeasure.org"/>
          <code value="mmol/L"/>
        </valueQuantity>
        <note>
          <text value="Incr chol 5.7, LDL 3.6, HDL 1.39"/>
        </note>
        <referenceRange>
          <text value="NA"/>
        </referenceRange>
      </Observation>
    </resource>
  </entry>
  <entry>
    <fullUrl value="https://fhir.example.com/Observation/5d269392-79c1-4129-a142-0cdee6b49ea4"/>
    <resource>
      <Observation>
        <id value="5d269392-79c1-4129-a142-0cdee6b49ea4"/>
        <text>
          <status value="generated"/><div xmlns="http://www.w3.org/1999/xhtml"><a name="Observation_5d269392-79c1-4129-a142-0cdee6b49ea4"> </a><p class="res-header-id"><b>Generated Narrative: Observation 5d269392-79c1-4129-a142-0cdee6b49ea4</b></p><a name="5d269392-79c1-4129-a142-0cdee6b49ea4"> </a><a name="hc5d269392-79c1-4129-a142-0cdee6b49ea4"> </a><p><b>status</b>: Final</p><p><b>category</b>: <span title="Codes:{http://terminology.hl7.org/CodeSystem/observation-category laboratory}">Laboratory</span></p><p><b>code</b>: <span title="Codes:{http://loinc.org 14646-4}">Cholesterol in HDL [Moles/volume] in Serum or Plasma</span></p><p><b>subject</b>: <a href="Bundle-bundle-ips-all-sections.html#Patient_d174bd1a-b368-41e6-83a2-af77f2b3c60f">Patricia JORDANA  Female, DoB: 1956-09-30 ( https://standards.digital.health.nz/ns/nhi-id#ABC1234)</a></p><p><b>effective</b>: 2023-10-31 15:06:00+0000</p><p><b>performer</b>: <a href="Bundle-bundle-ips-all-sections.html#PractitionerRole_75ed6f24-9a7e-4568-9c05-91b6d4786743">PractitionerRole Clinical pathologist</a></p><p><b>value</b>: 1.39 mmol/L<span style="background: LightGoldenRodYellow"> (Details: UCUM  codemmol/L = 'mmol/L')</span></p><p><b>note</b>: </p><blockquote><div><p>Incr chol 5.7, LDL 3.6, HDL 1.39</p>
</div></blockquote><h3>ReferenceRanges</h3><table class="grid"><tr><td style="display: none">-</td><td><b>Text</b></td></tr><tr><td style="display: none">*</td><td>NA</td></tr></table></div>
        </text>
        <status value="final"/>
        <category>
          <coding>
            <system value="http://terminology.hl7.org/CodeSystem/observation-category"/>
            <code value="laboratory"/>
          </coding>
        </category>
        <code>
          <coding>
            <system value="http://loinc.org"/>
            <code value="14646-4"/>
            <display value="Cholesterol in HDL [Moles/volume] in Serum or Plasma"/>
          </coding>
        </code>
        <subject>
          <reference value="Patient/d174bd1a-b368-41e6-83a2-af77f2b3c60f"/>
        </subject>
        <effectiveDateTime value="2023-10-31T15:06:00+00:00"/>
        <performer>
          <reference value="PractitionerRole/75ed6f24-9a7e-4568-9c05-91b6d4786743"/>
        </performer>
        <valueQuantity>
          <value value="1.39"/>
          <unit value="mmol/L"/>
          <system value="http://unitsofmeasure.org"/>
          <code value="mmol/L"/>
        </valueQuantity>
        <note>
          <text value="Incr chol 5.7, LDL 3.6, HDL 1.39"/>
        </note>
        <referenceRange>
          <text value="NA"/>
        </referenceRange>
      </Observation>
    </resource>
  </entry>
  <entry>
    <fullUrl value="https://fhir.example.com/Observation/36ff59b8-d5a7-438e-b8c6-cd54af10a4af"/>
    <resource>
      <Observation>
        <id value="36ff59b8-d5a7-438e-b8c6-cd54af10a4af"/>
        <text>
          <status value="generated"/><div xmlns="http://www.w3.org/1999/xhtml"><a name="Observation_36ff59b8-d5a7-438e-b8c6-cd54af10a4af"> </a><p class="res-header-id"><b>Generated Narrative: Observation 36ff59b8-d5a7-438e-b8c6-cd54af10a4af</b></p><a name="36ff59b8-d5a7-438e-b8c6-cd54af10a4af"> </a><a name="hc36ff59b8-d5a7-438e-b8c6-cd54af10a4af"> </a><p><b>status</b>: Final</p><p><b>category</b>: <span title="Codes:{http://terminology.hl7.org/CodeSystem/observation-category vital-signs}">Vital Signs</span></p><p><b>code</b>: <span title="Codes:{http://loinc.org 29463-7}">Body weight</span></p><p><b>subject</b>: <a href="Bundle-bundle-ips-all-sections.html#Patient_d174bd1a-b368-41e6-83a2-af77f2b3c60f">Patricia JORDANA  Female, DoB: 1956-09-30 ( https://standards.digital.health.nz/ns/nhi-id#ABC1234)</a></p><p><b>effective</b>: 2024-04-10 09:58:00+0000</p><p><b>performer</b>: <a href="Bundle-bundle-ips-all-sections.html#PractitionerRole_94d12c8d-a3df-47a7-a0bb-0f29d64bafe2">PractitionerRole Doctor</a></p><p><b>value</b>: 91.5 kg<span style="background: LightGoldenRodYellow"> (Details: UCUM  codekg = 'kg')</span></p></div>
        </text>
        <status value="final"/>
        <category>
          <coding>
            <system value="http://terminology.hl7.org/CodeSystem/observation-category"/>
            <code value="vital-signs"/>
          </coding>
        </category>
        <code>
          <coding>
            <system value="http://loinc.org"/>
            <code value="29463-7"/>
            <display value="Body weight"/>
          </coding>
        </code>
        <subject>
          <reference value="Patient/d174bd1a-b368-41e6-83a2-af77f2b3c60f"/>
        </subject>
        <effectiveDateTime value="2024-04-10T09:58:00+00:00"/>
        <performer>
          <reference value="PractitionerRole/94d12c8d-a3df-47a7-a0bb-0f29d64bafe2"/>
        </performer>
        <valueQuantity>
          <value value="91.5"/>
          <unit value="kg"/>
          <system value="http://unitsofmeasure.org"/>
          <code value="kg"/>
        </valueQuantity>
      </Observation>
    </resource>
  </entry>
  <entry>
    <fullUrl value="https://fhir.example.com/Observation/96e33a60-dbd8-47ce-b613-be954243939e"/>
    <resource>
      <Observation>
        <id value="96e33a60-dbd8-47ce-b613-be954243939e"/>
        <text>
          <status value="generated"/><div xmlns="http://www.w3.org/1999/xhtml"><a name="Observation_96e33a60-dbd8-47ce-b613-be954243939e"> </a><p class="res-header-id"><b>Generated Narrative: Observation 96e33a60-dbd8-47ce-b613-be954243939e</b></p><a name="96e33a60-dbd8-47ce-b613-be954243939e"> </a><a name="hc96e33a60-dbd8-47ce-b613-be954243939e"> </a><p><b>status</b>: Final</p><p><b>category</b>: <span title="Codes:{http://terminology.hl7.org/CodeSystem/observation-category vital-signs}">Vital Signs</span></p><p><b>code</b>: <span title="Codes:{http://loinc.org 39156-5}">Body mass index (BMI) [Ratio]</span></p><p><b>subject</b>: <a href="Bundle-bundle-ips-all-sections.html#Patient_d174bd1a-b368-41e6-83a2-af77f2b3c60f">Patricia JORDANA  Female, DoB: 1956-09-30 ( https://standards.digital.health.nz/ns/nhi-id#ABC1234)</a></p><p><b>effective</b>: 2024-04-10 09:58:00+0000</p><p><b>performer</b>: <a href="Bundle-bundle-ips-all-sections.html#PractitionerRole_94d12c8d-a3df-47a7-a0bb-0f29d64bafe2">PractitionerRole Doctor</a></p><p><b>value</b>: 24.56 kg/m2<span style="background: LightGoldenRodYellow"> (Details: UCUM  codekg/m2 = 'kg/m2')</span></p></div>
        </text>
        <status value="final"/>
        <category>
          <coding>
            <system value="http://terminology.hl7.org/CodeSystem/observation-category"/>
            <code value="vital-signs"/>
          </coding>
        </category>
        <code>
          <coding>
            <system value="http://loinc.org"/>
            <code value="39156-5"/>
            <display value="Body mass index (BMI) [Ratio]"/>
          </coding>
        </code>
        <subject>
          <reference value="Patient/d174bd1a-b368-41e6-83a2-af77f2b3c60f"/>
        </subject>
        <effectiveDateTime value="2024-04-10T09:58:00+00:00"/>
        <performer>
          <reference value="PractitionerRole/94d12c8d-a3df-47a7-a0bb-0f29d64bafe2"/>
        </performer>
        <valueQuantity>
          <value value="24.56"/>
          <unit value="kg/m2"/>
          <system value="http://unitsofmeasure.org"/>
          <code value="kg/m2"/>
        </valueQuantity>
      </Observation>
    </resource>
  </entry>
  <entry>
    <fullUrl value="https://fhir.example.com/Observation/4ea539e1-fff9-4f56-964f-650d9e69ce58"/>
    <resource>
      <Observation>
        <id value="4ea539e1-fff9-4f56-964f-650d9e69ce58"/>
        <text>
          <status value="generated"/><div xmlns="http://www.w3.org/1999/xhtml"><a name="Observation_4ea539e1-fff9-4f56-964f-650d9e69ce58"> </a><p class="res-header-id"><b>Generated Narrative: Observation 4ea539e1-fff9-4f56-964f-650d9e69ce58</b></p><a name="4ea539e1-fff9-4f56-964f-650d9e69ce58"> </a><a name="hc4ea539e1-fff9-4f56-964f-650d9e69ce58"> </a><p><b>status</b>: Final</p><p><b>category</b>: <span title="Codes:{http://terminology.hl7.org/CodeSystem/observation-category vital-signs}">Vital Signs</span></p><p><b>code</b>: <span title="Codes:{http://loinc.org 85354-9}">Blood pressure panel with all children optional</span></p><p><b>subject</b>: <a href="Bundle-bundle-ips-all-sections.html#Patient_d174bd1a-b368-41e6-83a2-af77f2b3c60f">Patricia JORDANA  Female, DoB: 1956-09-30 ( https://standards.digital.health.nz/ns/nhi-id#ABC1234)</a></p><p><b>effective</b>: 2024-08-30 08:32:00+0000</p><p><b>performer</b>: <a href="Bundle-bundle-ips-all-sections.html#PractitionerRole_94d12c8d-a3df-47a7-a0bb-0f29d64bafe2">PractitionerRole Doctor</a></p><blockquote><p><b>component</b></p><p><b>code</b>: <span title="Codes:{http://loinc.org 8480-6}">Systolic blood pressure</span></p><p><b>value</b>: 140 mmHg<span style="background: LightGoldenRodYellow"> (Details: UCUM  codemm[Hg] = 'mm[Hg]')</span></p></blockquote><blockquote><p><b>component</b></p><p><b>code</b>: <span title="Codes:{http://loinc.org 8462-4}">Diastolic blood pressure</span></p><p><b>value</b>: 80 mmHg<span style="background: LightGoldenRodYellow"> (Details: UCUM  codemm[Hg] = 'mm[Hg]')</span></p></blockquote></div>
        </text>
        <status value="final"/>
        <category>
          <coding>
            <system value="http://terminology.hl7.org/CodeSystem/observation-category"/>
            <code value="vital-signs"/>
          </coding>
        </category>
        <code>
          <coding>
            <system value="http://loinc.org"/>
            <code value="85354-9"/>
            <display value="Blood pressure panel with all children optional"/>
          </coding>
        </code>
        <subject>
          <reference value="Patient/d174bd1a-b368-41e6-83a2-af77f2b3c60f"/>
        </subject>
        <effectiveDateTime value="2024-08-30T08:32:00+00:00"/>
        <performer>
          <reference value="PractitionerRole/94d12c8d-a3df-47a7-a0bb-0f29d64bafe2"/>
        </performer>
        <component>
          <code>
            <coding>
              <system value="http://loinc.org"/>
              <code value="8480-6"/>
              <display value="Systolic blood pressure"/>
            </coding>
          </code>
          <valueQuantity>
            <value value="140"/>
            <unit value="mmHg"/>
            <system value="http://unitsofmeasure.org"/>
            <code value="mm[Hg]"/>
          </valueQuantity>
        </component>
        <component>
          <code>
            <coding>
              <system value="http://loinc.org"/>
              <code value="8462-4"/>
              <display value="Diastolic blood pressure"/>
            </coding>
          </code>
          <valueQuantity>
            <value value="80"/>
            <unit value="mmHg"/>
            <system value="http://unitsofmeasure.org"/>
            <code value="mm[Hg]"/>
          </valueQuantity>
        </component>
      </Observation>
    </resource>
  </entry>
  <entry>
    <fullUrl value="https://fhir.example.com/Observation/9f906425-8c18-4580-ab30-61a56d7f4c05"/>
    <resource>
      <Observation>
        <id value="9f906425-8c18-4580-ab30-61a56d7f4c05"/>
        <text>
          <status value="generated"/><div xmlns="http://www.w3.org/1999/xhtml"><a name="Observation_9f906425-8c18-4580-ab30-61a56d7f4c05"> </a><p class="res-header-id"><b>Generated Narrative: Observation 9f906425-8c18-4580-ab30-61a56d7f4c05</b></p><a name="9f906425-8c18-4580-ab30-61a56d7f4c05"> </a><a name="hc9f906425-8c18-4580-ab30-61a56d7f4c05"> </a><p><b>status</b>: Final</p><p><b>category</b>: <span title="Codes:{http://terminology.hl7.org/CodeSystem/observation-category social-history}">Social History</span></p><p><b>code</b>: <span title="Codes:{http://loinc.org 72166-2}">Tobacco smoking status</span></p><p><b>subject</b>: <a href="Bundle-bundle-ips-all-sections.html#Patient_d174bd1a-b368-41e6-83a2-af77f2b3c60f">Patricia JORDANA  Female, DoB: 1956-09-30 ( https://standards.digital.health.nz/ns/nhi-id#ABC1234)</a></p><p><b>effective</b>: 2022-10-20</p><p><b>performer</b>: <a href="Bundle-bundle-ips-all-sections.html#Patient_d174bd1a-b368-41e6-83a2-af77f2b3c60f">Patricia JORDANA  Female, DoB: 1956-09-30 ( https://standards.digital.health.nz/ns/nhi-id#ABC1234)</a></p><p><b>value</b>: <span title="Codes:{http://loinc.org LA18978-9}">Never smoker</span></p></div>
        </text>
        <status value="final"/>
        <category>
          <coding>
            <system value="http://terminology.hl7.org/CodeSystem/observation-category"/>
            <code value="social-history"/>
          </coding>
        </category>
        <code>
          <coding>
            <system value="http://loinc.org"/>
            <code value="72166-2"/>
            <display value="Tobacco smoking status"/>
          </coding>
        </code>
        <subject>
          <reference value="Patient/d174bd1a-b368-41e6-83a2-af77f2b3c60f"/>
        </subject>
        <effectiveDateTime value="2022-10-20"/>
        <performer>
          <reference value="Patient/d174bd1a-b368-41e6-83a2-af77f2b3c60f"/>
        </performer>
        <valueCodeableConcept>
          <coding>
            <system value="http://loinc.org"/>
            <code value="LA18978-9"/>
            <display value="Never smoker"/>
          </coding>
        </valueCodeableConcept>
      </Observation>
    </resource>
  </entry>
  <entry>
    <fullUrl value="https://fhir.example.com/Observation/e2e3f8aa-df2a-4357-b01f-a9fba6bb9b41"/>
    <resource>
      <Observation>
        <id value="e2e3f8aa-df2a-4357-b01f-a9fba6bb9b41"/>
        <text>
          <status value="generated"/><div xmlns="http://www.w3.org/1999/xhtml"><a name="Observation_e2e3f8aa-df2a-4357-b01f-a9fba6bb9b41"> </a><p class="res-header-id"><b>Generated Narrative: Observation e2e3f8aa-df2a-4357-b01f-a9fba6bb9b41</b></p><a name="e2e3f8aa-df2a-4357-b01f-a9fba6bb9b41"> </a><a name="hce2e3f8aa-df2a-4357-b01f-a9fba6bb9b41"> </a><p><b>status</b>: Final</p><p><b>category</b>: <span title="Codes:{http://terminology.hl7.org/CodeSystem/observation-category social-history}">Social History</span></p><p><b>code</b>: <span title="Codes:{http://loinc.org 74013-4}">Alcoholic drinks per day</span></p><p><b>subject</b>: <a href="Bundle-bundle-ips-all-sections.html#Patient_d174bd1a-b368-41e6-83a2-af77f2b3c60f">Patricia JORDANA  Female, DoB: 1956-09-30 ( https://standards.digital.health.nz/ns/nhi-id#ABC1234)</a></p><p><b>effective</b>: 2016-06-22</p><p><b>performer</b>: <a href="Bundle-bundle-ips-all-sections.html#Patient_d174bd1a-b368-41e6-83a2-af77f2b3c60f">Patricia JORDANA  Female, DoB: 1956-09-30 ( https://standards.digital.health.nz/ns/nhi-id#ABC1234)</a></p><p><b>value</b>: 1 d<span style="background: LightGoldenRodYellow"> (Details: UCUM  coded = 'd')</span></p></div>
        </text>
        <status value="final"/>
        <category>
          <coding>
            <system value="http://terminology.hl7.org/CodeSystem/observation-category"/>
            <code value="social-history"/>
          </coding>
        </category>
        <code>
          <coding>
            <system value="http://loinc.org"/>
            <code value="74013-4"/>
            <display value="Alcoholic drinks per day"/>
          </coding>
        </code>
        <subject>
          <reference value="Patient/d174bd1a-b368-41e6-83a2-af77f2b3c60f"/>
        </subject>
        <effectiveDateTime value="2016-06-22"/>
        <performer>
          <reference value="Patient/d174bd1a-b368-41e6-83a2-af77f2b3c60f"/>
        </performer>
        <valueQuantity>
          <value value="1"/>
          <unit value="d"/>
          <system value="http://unitsofmeasure.org"/>
          <code value="d"/>
        </valueQuantity>
      </Observation>
    </resource>
  </entry>
  <entry>
    <fullUrl value="https://fhir.example.com/PractitionerRole/75ed6f24-9a7e-4568-9c05-91b6d4786743"/>
    <resource>
      <PractitionerRole>
        <id value="75ed6f24-9a7e-4568-9c05-91b6d4786743"/>
        <text>
          <status value="generated"/><div xmlns="http://www.w3.org/1999/xhtml"><a name="PractitionerRole_75ed6f24-9a7e-4568-9c05-91b6d4786743"> </a><p class="res-header-id"><b>Generated Narrative: PractitionerRole 75ed6f24-9a7e-4568-9c05-91b6d4786743</b></p><a name="75ed6f24-9a7e-4568-9c05-91b6d4786743"> </a><a name="hc75ed6f24-9a7e-4568-9c05-91b6d4786743"> </a><p><b>code</b>: <span title="Codes:{http://snomed.info/sct 81464008}">Clinical pathologist</span></p></div>
        </text>
        <code>
          <coding>
            <system value="http://snomed.info/sct"/>
            <code value="81464008"/>
            <display value="Clinical pathologist"/>
          </coding>
        </code>
      </PractitionerRole>
    </resource>
  </entry>
  <entry>
    <fullUrl value="https://fhir.example.com/Flag/e8ae9c4e-8f5a-4270-bfac-02368c567fcf"/>
    <resource>
      <Flag>
        <id value="e8ae9c4e-8f5a-4270-bfac-02368c567fcf"/>
        <text>
          <status value="generated"/><div xmlns="http://www.w3.org/1999/xhtml"><a name="Flag_e8ae9c4e-8f5a-4270-bfac-02368c567fcf"> </a><p class="res-header-id"><b>Generated Narrative: Flag e8ae9c4e-8f5a-4270-bfac-02368c567fcf</b></p><a name="e8ae9c4e-8f5a-4270-bfac-02368c567fcf"> </a><a name="hce8ae9c4e-8f5a-4270-bfac-02368c567fcf"> </a><p><b>status</b>: Active</p><p><b>category</b>: <span title="Codes:{http://terminology.hl7.org/CodeSystem/flag-category diet}">Diet</span></p><p><b>code</b>: <span title="Codes:{http://snomed.info/sct 1255002008}">Shellfish free diet</span></p><p><b>subject</b>: <a href="Bundle-bundle-ips-all-sections.html#Patient_d174bd1a-b368-41e6-83a2-af77f2b3c60f">Patricia JORDANA  Female, DoB: 1956-09-30 ( https://standards.digital.health.nz/ns/nhi-id#ABC1234)</a></p></div>
        </text>
        <status value="active"/>
        <category>
          <coding>
            <system value="http://terminology.hl7.org/CodeSystem/flag-category"/>
            <code value="diet"/>
            <display value="Diet"/>
          </coding>
        </category>
        <code>
          <coding>
            <system value="http://snomed.info/sct"/>
            <code value="1255002008"/>
            <display value="Shellfish free diet"/>
          </coding>
        </code>
        <subject>
          <reference value="Patient/d174bd1a-b368-41e6-83a2-af77f2b3c60f"/>
        </subject>
      </Flag>
    </resource>
  </entry>
  <entry>
    <fullUrl value="https://fhir.example.com/Procedure/39252"/>
    <resource>
      <Procedure>
        <id value="39252"/>
        <text>
          <status value="generated"/><div xmlns="http://www.w3.org/1999/xhtml"><a name="Procedure_39252"> </a><p class="res-header-id"><b>Generated Narrative: Procedure 39252</b></p><a name="39252"> </a><a name="hc39252"> </a><p><b>status</b>: Completed</p><p><b>code</b>: <span title="Codes:{http://snomed.info/sct 52734007}">Total hip replacement</span></p><p><b>subject</b>: <a href="Bundle-bundle-ips-all-sections.html#Patient_d174bd1a-b368-41e6-83a2-af77f2b3c60f">Patricia JORDANA  Female, DoB: 1956-09-30 ( https://standards.digital.health.nz/ns/nhi-id#ABC1234)</a></p><p><b>performed</b>: 2000-04-28</p></div>
        </text>
        <status value="completed"/>
        <code>
          <coding>
            <system value="http://snomed.info/sct"/>
            <code value="52734007"/>
            <display value="Total hip replacement"/>
          </coding>
          <text value="Total hip replacement"/>
        </code>
        <subject>
          <reference value="Patient/d174bd1a-b368-41e6-83a2-af77f2b3c60f"/>
        </subject>
        <performedDateTime value="2000-04-28"/>
      </Procedure>
    </resource>
  </entry>
  <entry>
    <fullUrl value="https://fhir.example.com/DeviceUseStatement/eumfh-70-275-1"/>
    <resource>
      <DeviceUseStatement>
        <id value="eumfh-70-275-1"/>
        <text>
          <status value="extensions"/><div xmlns="http://www.w3.org/1999/xhtml"><a name="DeviceUseStatement_eumfh-70-275-1"> </a><p class="res-header-id"><b>Generated Narrative: DeviceUseStatement eumfh-70-275-1</b></p><a name="eumfh-70-275-1"> </a><a name="hceumfh-70-275-1"> </a><p><b>status</b>: Active</p><p><b>subject</b>: <a href="Bundle-bundle-ips-all-sections.html#Patient_d174bd1a-b368-41e6-83a2-af77f2b3c60f">Patricia JORDANA  Female, DoB: 1956-09-30 ( https://standards.digital.health.nz/ns/nhi-id#ABC1234)</a></p><p><b>timing</b>: Absent because : unknown</p><p><b>device</b>: <a href="Bundle-bundle-ips-all-sections.html#Device_eumfh-70-275-2">Hip prosthesis</a></p></div>
        </text>
        <status value="active"/>
        <subject>
          <reference value="Patient/d174bd1a-b368-41e6-83a2-af77f2b3c60f"/>
        </subject>
        <timingDateTime>
          <extension url="http://hl7.org/fhir/StructureDefinition/data-absent-reason">
            <valueCode value="unknown"/>
          </extension>
        </timingDateTime>
        <device>
          <reference value="Device/eumfh-70-275-2"/>
          <display value="Hip prosthesis"/>
        </device>
      </DeviceUseStatement>
    </resource>
  </entry>
  <entry>
    <fullUrl value="https://fhir.example.com/Device/eumfh-70-275-2"/>
    <resource>
      <Device>
        <id value="eumfh-70-275-2"/>
        <text>
          <status value="generated"/><div xmlns="http://www.w3.org/1999/xhtml"><a name="Device_eumfh-70-275-2"> </a><p class="res-header-id"><b>Generated Narrative: Device eumfh-70-275-2</b></p><a name="eumfh-70-275-2"> </a><a name="hceumfh-70-275-2"> </a><p><b>type</b>: <span title="Codes:{http://snomed.info/sct 67270000}">Hip prosthesis, device (physical object)</span></p></div>
        </text>
        <type>
          <coding>
            <system value="http://snomed.info/sct"/>
            <code value="67270000"/>
            <display value="Hip prosthesis, device (physical object)"/>
          </coding>
        </type>
      </Device>
    </resource>
  </entry>
  <entry>
    <fullUrl value="https://fhir.example.com/Consent/080d85fa-c807-42d1-a3af-b3ee70858a54"/>
    <resource>
      <Consent>
        <id value="080d85fa-c807-42d1-a3af-b3ee70858a54"/>
        <text>
          <status value="generated"/><div xmlns="http://www.w3.org/1999/xhtml"><a name="Consent_080d85fa-c807-42d1-a3af-b3ee70858a54"> </a><p class="res-header-id"><b>Generated Narrative: Consent 080d85fa-c807-42d1-a3af-b3ee70858a54</b></p><a name="080d85fa-c807-42d1-a3af-b3ee70858a54"> </a><a name="hc080d85fa-c807-42d1-a3af-b3ee70858a54"> </a><p><b>status</b>: Active</p><p><b>scope</b>: <span title="Codes:{http://terminology.hl7.org/CodeSystem/consentscope treatment}">Treatment</span></p><p><b>category</b>: <span title="Codes:{http://terminology.hl7.org/CodeSystem/consentcategorycodes dnr}">Do Not Resuscitate</span></p><p><b>patient</b>: <a href="Bundle-bundle-ips-all-sections.html#Patient_d174bd1a-b368-41e6-83a2-af77f2b3c60f">Patricia JORDANA  Female, DoB: 1956-09-30 ( https://standards.digital.health.nz/ns/nhi-id#ABC1234)</a></p><p><b>dateTime</b>: 2021-09-01</p><p><b>source</b>: <a href="Bundle-bundle-ips-all-sections.html#DocumentReference_advance-directive-123">DocumentReference: status = current; type = Health concerns Document; date = 2025-08-01 10:00:00+0000</a></p><p><b>policyRule</b>: <span title="Codes:{http://terminology.hl7.org/CodeSystem/consentpolicycodes cric}">Common Rule Informed Consent</span></p><h3>Provisions</h3><table class="grid"><tr><td style="display: none">-</td><td><b>Code</b></td></tr><tr><td style="display: none">*</td><td><span title="Codes:{http://snomed.info/sct 304253006}">Not for resuscitation</span></td></tr></table></div>
        </text>
        <status value="active"/>
        <scope>
          <coding>
            <system value="http://terminology.hl7.org/CodeSystem/consentscope"/>
            <code value="treatment"/>
            <display value="Treatment"/>
          </coding>
        </scope>
        <category>
          <coding>
            <system value="http://terminology.hl7.org/CodeSystem/consentcategorycodes"/>
            <code value="dnr"/>
            <display value="Do Not Resuscitate"/>
          </coding>
        </category>
        <patient>
          <reference value="Patient/d174bd1a-b368-41e6-83a2-af77f2b3c60f"/>
        </patient>
        <dateTime value="2021-09-01"/>
        <sourceReference>
          <reference value="DocumentReference/advance-directive-123"/>
        </sourceReference>
        <policyRule>
          <coding>
            <system value="http://terminology.hl7.org/CodeSystem/consentpolicycodes"/>
            <code value="cric"/>
          </coding>
        </policyRule>
        <provision>
          <code>
            <coding>
              <system value="http://snomed.info/sct"/>
              <code value="304253006"/>
              <display value="Not for resuscitation"/>
            </coding>
          </code>
        </provision>
      </Consent>
    </resource>
  </entry>
  <entry>
    <fullUrl value="https://fhir.example.com/DocumentReference/advance-directive-123"/>
    <resource>
      <DocumentReference>
        <id value="advance-directive-123"/>
        <text>
          <status value="generated"/><div xmlns="http://www.w3.org/1999/xhtml"><a name="DocumentReference_advance-directive-123"> </a><p class="res-header-id"><b>Generated Narrative: DocumentReference advance-directive-123</b></p><a name="advance-directive-123"> </a><a name="hcadvance-directive-123"> </a><p><b>status</b>: Current</p><p><b>type</b>: <span title="Codes:{http://loinc.org 75310-3}, {http://loinc.org 55188-7}">Health concerns Document</span></p><p><b>subject</b>: <a href="Bundle-bundle-ips-all-sections.html#Patient_d174bd1a-b368-41e6-83a2-af77f2b3c60f">Patricia JORDANA  Female, DoB: 1956-09-30 ( https://standards.digital.health.nz/ns/nhi-id#ABC1234)</a></p><p><b>date</b>: 2025-08-01 10:00:00+0000</p><blockquote><p><b>content</b></p><h3>Attachments</h3><table class="grid"><tr><td style="display: none">-</td><td><b>ContentType</b></td><td><b>Url</b></td><td><b>Title</b></td></tr><tr><td style="display: none">*</td><td>application/pdf</td><td><a href="https://fhir.example.com/DocumentReference/advance-directive-123/content">https://fhir.example.com/DocumentReference/advance-directive-123/content</a></td><td>Advance Directive Document</td></tr></table></blockquote></div>
        </text>
        <status value="current"/>
        <type>
          <coding>
            <system value="http://loinc.org"/>
            <code value="75310-3"/>
            <display value="Health concerns Document"/>
          </coding>
          <coding>
            <system value="http://loinc.org"/>
            <code value="55188-7"/>
            <display value="Patient data Document"/>
          </coding>
        </type>
        <subject>
          <reference value="Patient/d174bd1a-b368-41e6-83a2-af77f2b3c60f"/>
        </subject>
        <date value="2025-08-01T10:00:00Z"/>
        <content>
          <attachment>
            <contentType value="application/pdf"/>
            <url value="https://fhir.example.com/DocumentReference/advance-directive-123/content"/>
            <title value="Advance Directive Document"/>
          </attachment>
        </content>
      </DocumentReference>
    </resource>
  </entry>
  <entry>
    <fullUrl value="https://fhir.example.com/Condition/4f3d8f79-2f96-48c5-b346-d47f0c66c981"/>
    <resource>
      <Condition>
        <id value="4f3d8f79-2f96-48c5-b346-d47f0c66c981"/>
        <text>
          <status value="generated"/><div xmlns="http://www.w3.org/1999/xhtml"><a name="Condition_4f3d8f79-2f96-48c5-b346-d47f0c66c981"> </a><p class="res-header-id"><b>Generated Narrative: Condition 4f3d8f79-2f96-48c5-b346-d47f0c66c981</b></p><a name="4f3d8f79-2f96-48c5-b346-d47f0c66c981"> </a><a name="hc4f3d8f79-2f96-48c5-b346-d47f0c66c981"> </a><p><b>clinicalStatus</b>: <span title="Codes:{http://terminology.hl7.org/CodeSystem/condition-clinical active}">Active</span></p><p><b>verificationStatus</b>: <span title="Codes:{http://terminology.hl7.org/CodeSystem/condition-ver-status confirmed}">Confirmed</span></p><p><b>code</b>: <span title="Codes:{http://snomed.info/sct 82971005}">Impaired Mobility</span></p><p><b>subject</b>: <a href="Bundle-bundle-ips-all-sections.html#Patient_d174bd1a-b368-41e6-83a2-af77f2b3c60f">Patricia JORDANA  Female, DoB: 1956-09-30 ( https://standards.digital.health.nz/ns/nhi-id#ABC1234)</a></p><p><b>onset</b>: 2016-05-25</p><p><b>recordedDate</b>: 2016-05-25</p><p><b>asserter</b>: <a href="Bundle-bundle-ips-all-sections.html#Practitioner_816cf057-b736-4e08-baed-cc21e081b784">Practitioner HASHIRA COORAY COORAY </a></p></div>
        </text>
        <clinicalStatus>
          <coding>
            <system value="http://terminology.hl7.org/CodeSystem/condition-clinical"/>
            <code value="active"/>
          </coding>
        </clinicalStatus>
        <verificationStatus>
          <coding>
            <system value="http://terminology.hl7.org/CodeSystem/condition-ver-status"/>
            <code value="confirmed"/>
          </coding>
        </verificationStatus>
        <code>
          <coding>
            <system value="http://snomed.info/sct"/>
            <code value="82971005"/>
            <display value="Impaired Mobility"/>
          </coding>
        </code>
        <subject>
          <reference value="Patient/d174bd1a-b368-41e6-83a2-af77f2b3c60f"/>
        </subject>
        <onsetDateTime value="2016-05-25"/>
        <recordedDate value="2016-05-25"/>
        <asserter>
          <reference value="Practitioner/816cf057-b736-4e08-baed-cc21e081b784"/>
        </asserter>
      </Condition>
    </resource>
  </entry>
  <entry>
    <fullUrl value="https://fhir.example.com/Condition/77efacd9-b5a6-4b35-9764-269017ea7567"/>
    <resource>
      <Condition>
        <id value="77efacd9-b5a6-4b35-9764-269017ea7567"/>
        <text>
          <status value="generated"/><div xmlns="http://www.w3.org/1999/xhtml"><a name="Condition_77efacd9-b5a6-4b35-9764-269017ea7567"> </a><p class="res-header-id"><b>Generated Narrative: Condition 77efacd9-b5a6-4b35-9764-269017ea7567</b></p><a name="77efacd9-b5a6-4b35-9764-269017ea7567"> </a><a name="hc77efacd9-b5a6-4b35-9764-269017ea7567"> </a><p><b>clinicalStatus</b>: <span title="Codes:{http://terminology.hl7.org/CodeSystem/condition-clinical resolved}">Resolved</span></p><p><b>verificationStatus</b>: <span title="Codes:{http://terminology.hl7.org/CodeSystem/condition-ver-status confirmed}">Confirmed</span></p><p><b>code</b>: <span title="Codes:{http://snomed.info/sct 386661006}">Fever</span></p><p><b>subject</b>: <a href="Bundle-bundle-ips-all-sections.html#Patient_d174bd1a-b368-41e6-83a2-af77f2b3c60f">Patricia JORDANA  Female, DoB: 1956-09-30 ( https://standards.digital.health.nz/ns/nhi-id#ABC1234)</a></p><p><b>onset</b>: 2013-05-25</p><p><b>recordedDate</b>: 2016-05-25</p><p><b>asserter</b>: <a href="Bundle-bundle-ips-all-sections.html#Practitioner_816cf057-b736-4e08-baed-cc21e081b784">Practitioner HASHIRA COORAY COORAY </a></p></div>
        </text>
        <clinicalStatus>
          <coding>
            <system value="http://terminology.hl7.org/CodeSystem/condition-clinical"/>
            <code value="resolved"/>
          </coding>
        </clinicalStatus>
        <verificationStatus>
          <coding>
            <system value="http://terminology.hl7.org/CodeSystem/condition-ver-status"/>
            <code value="confirmed"/>
          </coding>
        </verificationStatus>
        <code>
          <coding>
            <system value="http://snomed.info/sct"/>
            <code value="386661006"/>
            <display value="Fever"/>
          </coding>
        </code>
        <subject>
          <reference value="Patient/d174bd1a-b368-41e6-83a2-af77f2b3c60f"/>
        </subject>
        <onsetDateTime value="2013-05-25"/>
        <recordedDate value="2016-05-25"/>
        <asserter>
          <reference value="Practitioner/816cf057-b736-4e08-baed-cc21e081b784"/>
        </asserter>
      </Condition>
    </resource>
  </entry>
  <entry>
    <fullUrl value="https://fhir.example.com/CarePlan/85d57ac7-ea2d-47cf-b019-b867f876ee7c"/>
    <resource>
      <CarePlan>
        <id value="85d57ac7-ea2d-47cf-b019-b867f876ee7c"/>
        <text>
          <status value="additional"/><div xmlns="http://www.w3.org/1999/xhtml"><a name="CarePlan_85d57ac7-ea2d-47cf-b019-b867f876ee7c"> </a><p>A simple care plan to indicate a patient taking their weight once a day because of hypertension.</p></div>
        </text>
        <basedOn>
          <display value="Management of Hypertension"/>
        </basedOn>
        <replaces>
          <display value="Plan from urgent care clinic"/>
        </replaces>
        <partOf>
          <display value="Overall wellness plan"/>
        </partOf>
        <status value="active"/>
        <intent value="plan"/>
        <category>
          <text value="Weight management plan"/>
        </category>
        <description value="Manage obesity and weight loss"/>
        <subject>
          <reference value="Patient/d174bd1a-b368-41e6-83a2-af77f2b3c60f"/>
        </subject>
        <period>
          <end value="2017-06-01"/>
        </period>
        <created value="2016-01-01"/>
        <activity>
          <outcomeCodeableConcept>
            <coding>
              <system value="http://snomed.info/sct"/>
              <code value="262285001"/>
              <display value="Weight decreased"/>
            </coding>
          </outcomeCodeableConcept>
          <detail>
            <code>
              <coding>
                <system value="http://loinc.org"/>
                <code value="3141-9"/>
                <display value="Weight Measured"/>
              </coding>
              <coding>
                <system value="http://snomed.info/sct"/>
                <code value="27113001"/>
                <display value="Body weight"/>
              </coding>
            </code>
            <status value="completed"/>
            <statusReason>
              <text value="Achieved weight loss to mitigate diabetes risk."/>
            </statusReason>
            <doNotPerform value="false"/>
            <scheduledTiming>
              <repeat>
                <frequency value="1"/>
                <period value="1"/>
                <periodUnit value="d"/>
              </repeat>
            </scheduledTiming>
            <location>
              <display value="Patient's home"/>
            </location>
          </detail>
        </activity>
      </CarePlan>
    </resource>
  </entry>
  <entry>
    <fullUrl value="https://fhir.example.com/Observation/f241ac65-5eab-49a0-8b92-7fb263274110"/>
    <resource>
      <Observation>
        <id value="f241ac65-5eab-49a0-8b92-7fb263274110"/>
        <text>
          <status value="generated"/><div xmlns="http://www.w3.org/1999/xhtml"><a name="Observation_f241ac65-5eab-49a0-8b92-7fb263274110"> </a><p class="res-header-id"><b>Generated Narrative: Observation f241ac65-5eab-49a0-8b92-7fb263274110</b></p><a name="f241ac65-5eab-49a0-8b92-7fb263274110"> </a><a name="hcf241ac65-5eab-49a0-8b92-7fb263274110"> </a><p><b>status</b>: Final</p><p><b>code</b>: <span title="Codes:{http://loinc.org 82810-3}">Pregnancy status</span></p><p><b>subject</b>: <a href="Bundle-bundle-ips-all-sections.html#Patient_d174bd1a-b368-41e6-83a2-af77f2b3c60f">Patricia JORDANA  Female, DoB: 1956-09-30 ( https://standards.digital.health.nz/ns/nhi-id#ABC1234)</a></p><p><b>effective</b>: 2020-01-10</p><p><b>performer</b>: <a href="Bundle-bundle-ips-all-sections.html#Practitioner_816cf057-b736-4e08-baed-cc21e081b784">Practitioner HASHIRA COORAY COORAY </a></p><p><b>value</b>: <span title="Codes:{http://snomed.info/sct 60001007}">Not Pregnant</span></p></div>
        </text>
        <status value="final"/>
        <code>
          <coding>
            <system value="http://loinc.org"/>
            <code value="82810-3"/>
            <display value="Pregnancy status"/>
          </coding>
        </code>
        <subject>
          <reference value="Patient/d174bd1a-b368-41e6-83a2-af77f2b3c60f"/>
        </subject>
        <effectiveDateTime value="2020-01-10"/>
        <performer>
          <reference value="Practitioner/816cf057-b736-4e08-baed-cc21e081b784"/>
        </performer>
        <valueCodeableConcept>
          <coding>
            <system value="http://snomed.info/sct"/>
            <code value="60001007"/>
            <display value="Not Pregnant"/>
          </coding>
        </valueCodeableConcept>
      </Observation>
    </resource>
  </entry>
</Bundle>